Ax,Ay,Az,Gx,Gy,Gz
0.715574627027027,-0.0823913505405405,0.542333885675676,-1.40564467945946,7.45765522459459,-3.54531987972973
0.755237593258628,-0.0866128327705065,0.572368166540117,-0.308215607567010,4.86677161943209,-2.41467379545719
0.770885353016028,-0.0876152801265168,0.583612463490451,-0.204335869136309,3.93853874975724,-1.75154522717257
0.777281839702124,-0.0861190382931325,0.592470887640344,-0.236804215303952,3.56868253402186,-1.39351987257760
0.779133265630946,-0.0872170194856969,0.597933721171941,0.411224123454801,3.15400240300837,-1.18612717760725
0.778550295934388,-0.0835917784849272,0.600290829082833,-0.126017336766747,2.55336236586558,-1.32887063727579
0.777232509385255,-0.0818508520207764,0.600895302525293,0.248687819751410,1.90401410491993,-1.67708768871549
0.777286372930034,-0.0824938241081960,0.600862131000992,0.492328277000562,1.50835818588809,-1.79962998084032
0.778082048881539,-0.0832642441170891,0.603543584246455,0.411678856669578,1.25965937424489,-1.81572773890335
0.779091869174618,-0.0850456103286063,0.607426550784571,0.707257069335726,1.07551626579705,-1.76809856838409
0.779512824450076,-0.0863444045719500,0.607172523339438,0.675281786847854,1.02292038289821,-1.72753672938628
0.780798379232806,-0.0881229243641777,0.607333535802018,0.590209068568220,1.03725793878544,-1.58607419768035
0.780764293492928,-0.0900967659915191,0.607723219514265,0.796449196788474,1.17907050823302,-1.51624799037662
0.780582968487158,-0.0876852884979105,0.610409750793274,0.669687752633729,1.52552321573697,-1.43898208310597
0.781978749583545,-0.0869061722528151,0.612254128131881,0.453097082581048,1.82484890801336,-1.45411420746840
0.783090766104920,-0.0847733902559349,0.614419344711047,0.408663789545458,1.94414219129461,-1.60575035057141
0.783317868076667,-0.0821700727903367,0.615309894573486,-0.338894272411601,2.14731180557756,-1.88614819416417
0.783544067103931,-0.0782064195049880,0.616840604059706,-0.652049807392426,2.62595846162812,-2.53771467697966
0.784842900998779,-0.0694087003275659,0.617808282695048,-1.71725691751875,3.19364782053980,-3.45823613054727
0.784360984715318,-0.0616255918558195,0.618618477788721,-2.48198041103580,3.45930722749651,-4.60451082133765
0.782263489539955,-0.0607952995852728,0.617142540132977,-2.29754999760145,3.35664140272845,-5.38477131036546
0.779786343918601,-0.0658386467536005,0.613543425580590,-1.63650650039632,2.79987311069601,-5.98566854158285
0.777586912208157,-0.0725775945438218,0.611317524073347,-0.612158232304886,1.99693303950732,-6.03449181058440
0.775052140243908,-0.0827881090119224,0.611573142834835,0.389790715897585,1.19334632356377,-5.54931750564653
0.772752999363583,-0.0945091462695053,0.611769743242724,1.84329551367669,0.607335584241463,-4.51304543648578
0.772751749527930,-0.105212001852869,0.610311451614815,2.45745295097875,0.335356906595161,-3.27339370378383
0.773393367286937,-0.108133266231306,0.613004673473600,2.52003463016870,0.434114132282590,-2.23876710604439
0.774281858820542,-0.105799024056547,0.615820912826468,2.17132814857623,0.684173828979274,-1.52996638718719
0.774319507400149,-0.0994934883151983,0.616299279243090,1.13610657828864,0.736220135006743,-1.27673311779050
0.773514175594691,-0.0935408611078522,0.615363021090136,1.08083082047238,0.494298353662929,-1.35553059580722
0.772546253584348,-0.0821162481636662,0.609980359813611,1.10310270744368,0.0895962165468076,-1.55059459141200
0.773226610029043,-0.0742573084370240,0.599764542238908,0.695675598105694,0.438567373467352,-2.27009099383858
0.778669947973566,-0.0701126477484240,0.604205004111458,0.363361870739705,0.446357243882604,-2.84551111733669
0.776726524792032,-0.0683154095566697,0.611247305131322,-0.505347771729476,1.22052419655470,-3.71527723636438
0.770145708533919,-0.0603593891698881,0.640214493407519,0.547438853489104,1.53622894424922,-3.92062978291541
0.777114094612685,-0.0644544660423592,0.644268544455050,2.27766154726666,1.59345603975284,-3.86447904655217
0.778984485386306,-0.0583420982739463,0.635130682693674,2.96207230009980,1.10641942576913,-4.01045433229403
0.788635211132851,-0.0583134394092133,0.625826998616416,4.61945003685234,0.779619520445259,-3.46853494672223
0.801731172226363,-0.0703702847983117,0.620494750725081,5.01826040677307,1.04804449220821,-2.23723894400216
0.806848768427324,-0.0750947159434133,0.624050353477288,2.78201662589311,1.99145201007282,-0.713871124508011
0.801413700600245,-0.0761169843671176,0.618129866597270,3.92902120178363,3.31811654649630,0.467833450808057
0.791187410547054,-0.0797664938988488,0.613906991026297,6.29683374918281,3.78681236142576,1.55225362185371
0.774609338018014,-0.0669306139878694,0.609825733571562,6.62875493665904,3.15232792915411,2.05456838145784
0.769790379719135,-0.0654507130416806,0.610427307355966,6.90929201650605,2.05046160457261,1.70287286779590
0.773530877997847,-0.0658125207828369,0.610037375300438,6.94737410601436,1.03413545477372,1.35212103192752
0.776689741275681,-0.0627779035764996,0.610797573176997,6.64716285824062,0.374942240207530,1.32393022689084
0.776782491141234,-0.0602332390252364,0.614484221106072,5.60208275913399,-0.134973329865471,1.14822799511908
0.774254400358300,-0.0538908972502156,0.619447064158381,4.11182467701072,-0.687920706206246,0.589362014051148
0.772031058026682,-0.0489321176958432,0.618666254659385,3.18862817837345,-0.916831367650131,-0.0913834518413033
0.773338559529767,-0.0486042153164566,0.618784023929798,1.96049749094419,-0.718032220119515,-0.504315036030739
0.776069980954570,-0.0493470966358342,0.625349628878117,0.815986379100923,-0.558591447872685,-0.760235852631169
0.777944332210477,-0.0561015171288591,0.626159333774334,0.289432274347091,0.0855206436354012,-0.846105769382435
0.777519638174825,-0.0598123242954760,0.624986841337301,0.410426837301277,0.660286225072800,-0.876447796714942
0.777505263679000,-0.0636453291961505,0.624488939840663,0.475135431006217,0.993874923580986,-0.865708538908679
0.778117837305172,-0.0641214562341393,0.623983354096376,0.527415612842630,1.23616539423241,-0.899059117344397
0.778449247924889,-0.0647709976950459,0.623600135938556,0.914479997654129,1.46477172144651,-0.920105815420878
0.778857537575778,-0.0626041232761477,0.623319024592274,0.757446553044754,1.57749312302949,-1.04632954134013
0.778934861191606,-0.0612927294976671,0.623588568600595,0.346847781626557,1.74330354480213,-1.47570354222484
0.778019278659526,-0.0573946083097481,0.624070069975021,-0.264111440350138,2.01351695552826,-2.08225353207923
0.778084899305652,-0.0543743836657282,0.624746843058780,-0.726319118576385,2.29977852226125,-2.82853193565670
0.780699341030446,-0.0497187336468218,0.624264283468258,-1.59159919925743,2.41383009208451,-3.78161171421366
0.780727167321570,-0.0461350269225787,0.624348620404281,-2.66879225494381,2.50240795371961,-4.71819866550770
0.778541378488498,-0.0461720424128513,0.621723114224726,-2.54328809773360,2.47863604446333,-5.55187765965171
0.775656881422582,-0.0485419504440337,0.620784780760483,-2.04176975058506,2.17075690251722,-6.09380369005532
0.775322142185183,-0.0530583922705875,0.619010719137850,-1.36788607867162,1.67978989543154,-6.38630551164143
0.776145508118604,-0.0591858571203026,0.617903640326193,-0.326373142455487,1.30966008300745,-6.55983271529422
0.774656671862873,-0.0610919446200174,0.618657873106540,-0.600948213663271,0.993866100563816,-6.76402621090218
0.772470696650241,-0.0643634529270568,0.619423894257606,-0.341442064535573,0.588325318485354,-6.73548959712618
0.770349813218835,-0.0690761418128601,0.618401742166647,0.279413774859246,0.0821044344407629,-6.25954905516336
0.768749353320932,-0.0700767827387048,0.624027391728997,1.41319019943841,-0.730912613735658,-5.58498835255771
0.766270104863718,-0.0697321511853360,0.618679096132142,2.10858846155692,-1.33157943553989,-4.94133937275306
0.771274835476638,-0.0688982761015856,0.616798278905777,2.43983024691969,-0.888575545231294,-4.28594861397847
0.775252725530245,-0.0700717738939931,0.616221342627577,1.12950178538831,0.0417852951677653,-4.52292252785603
0.774567392909115,-0.0668322851587573,0.631016806531547,-0.345270082608157,0.685140510692484,-5.03426877549688
0.771749609457566,-0.0616841006796591,0.629980638753133,0.0832259529155031,0.439491856814288,-5.12997228010079
0.774150760512172,-0.0583607457732585,0.626379077679150,1.19877449045214,0.381420379415848,-4.50491699759579
0.783234736502219,-0.0467183648578479,0.632963526409311,0.914593152787102,0.388222747542177,-3.91993117384877
0.794218863847975,-0.0445415028631257,0.627174580187436,1.89459345873396,0.768747289355145,-3.16876522784266
0.803680018800418,-0.0495207937791773,0.620109335538836,1.34979629529417,1.59551139871500,-2.00249655179100
0.803072159992074,-0.0458573599113501,0.615499600197941,-0.938076913926680,2.66152954848494,-1.14138896479638
0.794872578341826,-0.0492802868425355,0.602989209360131,-0.328422343582517,3.27825806965412,-0.815849316024801
0.789477805058342,-0.0513791214874218,0.601551154816894,1.66395712810282,3.10439225273258,0.280989184190981
0.781266175726772,-0.0474098253766308,0.597174910900532,3.18387163850410,2.11451434702195,0.737490686607302
0.774311360434753,-0.0469307647035465,0.588068434173123,4.91501502238634,0.512587785379331,0.176376180156631
0.774719104248516,-0.0408868814098503,0.595908512782442,3.47568070609532,-0.499892377922893,-0.0779556671652670
0.776989864654771,-0.0402989442593482,0.608659017277565,3.63006335311850,-1.03044372419162,0.0781055722495820
0.779319335716874,-0.0416769611964129,0.614631364015248,3.81133590556307,-1.09289748904132,0.211348533577140
0.779009066422304,-0.0352652667603922,0.621802887308802,2.63101387697124,-0.861379135404876,-0.245432282819081
0.778700228985381,-0.0345334408236695,0.624706427123539,2.13496006011841,-0.516440484556481,-0.508195594437729
0.779653842472850,-0.0353438002988532,0.627364230664492,2.15044779854056,-0.0914232067462972,-0.574305279495950
0.781061239192051,-0.0356541566673965,0.630070038163396,1.14688360299166,0.547438216615386,-0.854611392769229
0.782040907120647,-0.0327065642861603,0.630578244238714,-0.287487123163578,1.29119679712710,-1.11946081384933
0.778655214099657,-0.0438907023400031,0.631039799430420,-0.322273990659160,1.13531665835034,-1.37067634232828
0.777020699130906,-0.0533275917243654,0.630317367278952,0.116773214581666,0.936852237991511,-1.60429309647358
0.776386263313081,-0.0589769908335322,0.630574555969844,0.357634885433851,0.954029388549299,-1.70569548240290
0.776097970499191,-0.0634514607954865,0.630781382365040,0.436514901580462,1.16067645800232,-1.65418805294733
0.775370613384159,-0.0665740319609612,0.630518717937992,0.491806723889012,1.28643060242747,-1.61886963994096
0.774313207898829,-0.0674734774182358,0.629276375806938,0.517107549529275,1.40535612818711,-1.63038422054748
0.773488812232512,-0.0668047222225920,0.628561470968022,0.497003734713395,1.56899586588135,-1.77594815266705
0.774425323162023,-0.0616726407495828,0.628593063074786,0.107833058794437,1.71093732073288,-2.08122363551592
0.775915481430983,-0.0565129163543558,0.629265205796369,-0.443448066051415,1.98727821257380,-2.65009481166400
0.777914783884324,-0.0498159177573330,0.631838740431003,-2.25871990140520,2.50275134419051,-4.05614311899277
0.774835008061823,-0.0447536869605745,0.631313500016947,-4.51804906651774,2.82139123755443,-5.52241471008120
0.771183650231862,-0.0464434569655635,0.630868026748378,-5.57847315852598,2.81098069572892,-6.76258934239082
0.767131787335284,-0.0511238567640364,0.628221503164529,-5.17422739984130,2.51222420772958,-7.50681796377287
0.765757301545300,-0.0539345803608013,0.625879835685739,-5.11718776200271,1.84253186473407,-8.30075947372720
0.763665833938714,-0.0594278860146451,0.623595592476650,-4.58787250659188,0.982432284433696,-8.77927201724670
0.762268106885984,-0.0677583833138794,0.621870932585339,-3.00379892571851,0.0877635488499633,-8.62175819990898
0.761795036115585,-0.0740924903365131,0.622802737315227,-1.51292526911350,-0.858759540073692,-7.90757363908248
0.760257891707678,-0.0783252862625195,0.623939168129411,0.705752104994066,-2.06076265751136,-6.93352836979639
0.760560285215297,-0.0845808772087435,0.612764173317491,1.54855864996200,-1.65484792888961,-7.00758339798446
0.768284007220714,-0.0803810820314010,0.619197524693056,-0.827211924566714,-0.711376899788243,-7.02893526651037
0.773662386494488,-0.0724027275862109,0.626657709536067,-6.57406629694647,-0.462140782858778,-8.16799811749937
0.770913453760662,-0.0674536935692364,0.622050351140222,-7.51514182896434,-0.109200605743181,-8.37040182575248
0.769367660537384,-0.0658287211111629,0.632285024034481,-7.49860296151070,-0.00500053721387879,-7.54345427606548
0.780216917847360,-0.0647227973761494,0.632388639431312,-5.92621701836791,-0.196326009542423,-6.74607785194041
0.789689126355378,-0.0578687209101296,0.628047233659996,-3.19191465576418,0.0598296926555839,-5.78150601810020
0.800853699830934,-0.0589693859040640,0.630729218089875,-1.65289478364708,1.01281935421727,-4.09041677300895
0.805924788313973,-0.0691684053885012,0.634933810090180,-0.612374170889051,2.45952336359960,-1.80863422034234
0.801957565029058,-0.0706659254736137,0.631875660025196,0.991245725398298,3.66463680072907,-0.0385342412223408
0.792893424683876,-0.0702143138244659,0.615674804727822,4.12891513391060,4.48497744692288,1.64189194712708
0.786254898773216,-0.0741230721814990,0.615453820741865,5.51855339905834,4.27719269115138,1.98059057780000
0.777667754511174,-0.0695046734989396,0.607845671003729,5.45682979636286,3.31843507727921,1.53857406463159
0.775597074841655,-0.0707293739396101,0.612233036840958,5.67482829070285,2.51574270056762,1.25824202327427
0.774208586909218,-0.0660278248217596,0.618031923983574,4.39249876009540,1.79358968068842,0.887375475779392
0.772376431554034,-0.0615620359172301,0.621633504443589,4.00184764414240,1.23807399003864,0.651963884176884
0.770719818385787,-0.0595647459348221,0.625445364107717,3.56369911296502,1.02993491768312,0.587455957004773
0.769241501742765,-0.0546714735659993,0.628108447842084,2.87280036074434,0.949645575045285,0.528867455288636
0.769203996498152,-0.0526562502908045,0.630693017612593,2.38332992738444,0.987162821371195,0.336699788063508
0.769399662774612,-0.0490852038180223,0.631218882548736,1.90155292201459,0.950027925973444,0.211157926715507
0.770692458575253,-0.0507803465645262,0.632950765245727,1.15942276386847,1.04990428414279,0.00981070523608182
0.769673360210692,-0.0473427010092197,0.633162321913575,0.726989534765418,1.17256043532674,-0.274131507167663
0.769801916760987,-0.0468594368758875,0.634101861360497,0.859657846115954,1.29670794781854,-0.383871660922914
0.769329901250180,-0.0550791692559718,0.632669803046587,0.749276801581120,1.35371465522578,-0.713664259357388
0.769403673064278,-0.0634194208691834,0.632421880098988,0.603518084322563,1.39196048816896,-0.920028805237169
0.768193433792226,-0.0705716693390259,0.632439313275707,0.742653099402748,1.53073052458101,-1.00790671430191
0.769202050103411,-0.0734050466028636,0.632056347321958,0.668605253639524,1.55414267125208,-1.19920119955938
0.768702811924517,-0.0744032501740374,0.631737273054602,0.211535843611386,1.57826879148602,-1.55909093561157
0.768392887900415,-0.0709884339813669,0.632628370988311,-0.0808151868235995,1.81155276220366,-1.85119455863759
0.768112809658461,-0.0690908501600489,0.633747331475764,-0.734831248457958,2.21094009663769,-2.46762093007671
0.766775078881379,-0.0608796387238729,0.636391619342459,-2.78326691829659,2.72548939265944,-3.95857093965010
0.766516467181297,-0.0571128007833563,0.636960842096900,-4.25750790611276,3.17522574230044,-5.37322145558067
0.766043292352877,-0.0600471415502759,0.633856671896416,-4.53822156478646,3.19954398892244,-6.28267527710692
0.766678782367030,-0.0677434335688905,0.633613662177737,-4.07054775190980,2.66800308766487,-6.67468373282417
0.766825146909135,-0.0748063734971474,0.631204720693297,-3.18754304806586,2.15100410348989,-6.74087993648573
0.765653643962839,-0.0812930567347067,0.628867210514479,-2.07380189854703,1.67922880316002,-6.62635838757744
0.763127340725230,-0.0849139244332560,0.628943588441630,-1.32520859934481,1.00671037148260,-6.54873071379141
0.760760204126032,-0.0908287969138482,0.627634115448731,-1.00025082995516,0.349626662431244,-6.44819317618884
0.758861578587772,-0.0944045905642292,0.626126355754804,-1.23740443291785,-0.153979702157990,-6.60022585403448
0.757399453668996,-0.0937940081754165,0.628235613663479,-1.99164497781249,-0.976119641510126,-7.03023976509330
0.753059796541479,-0.0904738531735780,0.616561833301352,-2.48163310451356,-1.57713522977644,-7.47235471229491
0.765830161124383,-0.0989824424219945,0.615862076234201,-4.54556103469203,-1.42285493030250,-8.35640575705143
0.761844640628209,-0.0899020193838080,0.635544033563068,-6.37079376165572,-1.75503365431695,-8.86502912730008
0.753865741790976,-0.0981885613573413,0.637384843634300,-5.57768589745284,-1.76767565662787,-8.94831065507641
0.766530741539678,-0.0937964307078738,0.656293332742412,-5.83893756501343,-1.40551996870033,-8.38727401678653
0.784390136802961,-0.0871723492446957,0.663361550290134,-5.71332780006911,0.252481865054321,-6.64061732410581
0.801016766715989,-0.0942835493489588,0.659952024263290,-5.10819037254692,2.20237128596652,-3.92745536028264
0.807277906355365,-0.0871933375166811,0.650492524368474,-6.13481732293952,4.20353869707051,-1.09180223709938
0.803484067564480,-0.0842334335130201,0.635174663213932,-1.50095664666102,5.76636055287321,1.75272101595946
0.790856104443754,-0.0852033411547144,0.608966373544687,4.54683199247765,6.28711451376484,4.01005204115407
0.775786084033270,-0.0858680387759327,0.598664407179168,8.29333631442298,5.43397139642286,4.19311382424342
0.767051329834932,-0.0866457205223753,0.597014507360249,9.35237290672422,4.47301719507084,3.86152512612188
0.761793105244056,-0.0956124340395409,0.615629894723955,8.43814286181125,3.54510802801512,3.40250285238983
0.757473351517530,-0.0952798508653653,0.630426446969885,7.10552245908961,2.71920494907220,2.88270469040350
0.753026060308903,-0.0939339014987168,0.636241661611775,5.97001362302548,2.11638302422522,2.28470858693387
0.750481589266150,-0.0858366098770100,0.638503577159792,5.07308929217781,1.33542317086067,1.51506377242087
0.750060136120794,-0.0792153560025111,0.635207415021625,4.02618978914823,0.709106460501824,0.897784810330511
0.752626571317983,-0.0763893617516130,0.638183738922248,3.50457557540333,0.187056822435994,0.508427093469172
0.757873984059347,-0.0738150741475055,0.642318751889578,2.57733720202790,-0.0225438185739860,0.512060102884169
0.762278512464391,-0.0723601677195091,0.640487288025431,1.69027458279598,0.323455513724017,0.899307551797051
0.765609930145776,-0.0768612125510906,0.644661028446881,1.35540207176789,0.989106697615683,1.31676387366306
0.765856735689075,-0.0793370845292599,0.646655466487532,0.630767264190892,1.56813050045197,1.59044741584058
0.764928023442930,-0.0808851866371220,0.649252502462827,0.439340858351497,1.97780905726540,1.82415832140003
0.762180340666097,-0.0829982030277136,0.649540638430948,0.466804559234931,2.31258267870191,2.03519134978262
0.758009234069821,-0.0831548022580309,0.649174675947338,0.229291777949591,2.56790522422705,2.02276375035261
0.756054313204489,-0.0890665723488176,0.647484720412286,0.593563591669630,2.71828569929339,2.05635114602790
0.754677133587875,-0.0893901887736751,0.647949118844145,-0.213562222621028,2.80220507715515,2.04806634980962
0.753380093661650,-0.0905331810983854,0.647567456509901,0.0314917353498005,2.77932853868354,1.94237332307020
0.750920135569211,-0.0894397571919110,0.647810591884046,0.0268941864557217,2.70232993251446,1.70701284807419
0.749329619245809,-0.0894582421624566,0.647446462329884,0.286881198677050,2.54373616258778,1.43046040216495
0.752819403936603,-0.0866446937786723,0.643505696920567,0.384360159174224,2.14347330303793,0.662180840209289
0.756128337591246,-0.0873358825103101,0.640083830941519,0.720551978610670,1.84513089104945,0.200482130990454
0.758085355984297,-0.0879368273543534,0.638422211873532,0.970185862364593,1.54522538569678,-0.0895191597543933
0.760358255916794,-0.0877913223975179,0.637352396678715,1.09350351951090,1.54050965168698,-0.200111307944119
0.761864027677973,-0.0859646073488838,0.636942090385705,0.829215820136154,1.75863078615693,-0.426389255417393
0.764906680569794,-0.0813726690032436,0.638460684881422,0.549008445907470,1.88067895322456,-0.761762409623513
0.767855889232612,-0.0768050183116516,0.638919772501338,-0.190541661933517,2.28479191002602,-1.17922428725329
0.769250151051135,-0.0685413732052211,0.638893035173768,-0.761563352801795,2.92998616314380,-1.81251404053891
0.768529815320096,-0.0611268249516256,0.639430847325673,-1.47054679147226,3.33212321792607,-2.71528260610834
0.766346402830651,-0.0568236069548634,0.638157663424309,-1.73552926003233,3.12949877216360,-3.90746551398394
0.762806079968467,-0.0567024453161129,0.634509377865787,-1.65905533766339,2.59101256452481,-5.10517759160851
0.760621269360000,-0.0591122567308793,0.631337488077376,-1.68003404568943,1.97362100691247,-6.16775009457118
0.759125932417347,-0.0657509929393285,0.629624415381044,-1.40651162992046,1.07805260515434,-6.84349981776985
0.758163145997665,-0.0747646474749611,0.627781498565263,-0.918550631643098,0.209435624428172,-7.08209231495751
0.757473319905872,-0.0810476467307094,0.627267573883339,-0.437215507127523,-0.594274711816933,-6.97873151052686
0.757327341342832,-0.0854257197444094,0.625550796956071,0.208291296125375,-1.35350257538210,-6.80882931715958
0.756603715981904,-0.0881847483715588,0.624876050691748,0.871913093466209,-2.11761821494486,-6.34921641216736
0.757082233881417,-0.0890861773037066,0.622007577280582,0.663872674708743,-2.03656173197592,-5.60956861902428
0.763171302055041,-0.0958064392510788,0.623178878584683,-2.61869815052409,-0.935036446057239,-5.52598020604800
0.765221335932281,-0.0959155621488073,0.636528929728549,-5.24599461400906,0.136223787541428,-5.74039513685186
0.757336780164596,-0.0951001156944616,0.646809741253285,-6.51209704782580,0.425910780075892,-6.07268311767184
0.752602950688110,-0.0839681933523358,0.642079267612729,-5.39920158003062,0.714138291663151,-6.03626842586529
0.761834531800556,-0.0760365334081604,0.647435112435435,-3.64198431953203,0.984069325682174,-5.71493645835366
0.780941138172178,-0.0693170008232684,0.649553735142624,-2.56891821427160,1.52802365845491,-4.73930789295576
0.795529369387070,-0.0751827610331511,0.650386788150436,-1.56206712076035,2.64169972740958,-2.94499675942142
0.799236201366245,-0.0752576447226107,0.646174443634677,-0.693662732847282,3.85234083234022,-0.734032436858067
0.794183859424036,-0.0830242440991720,0.629262100061637,2.52574256609883,4.85724420730448,1.48125078037531
0.787821006583412,-0.0876830813209614,0.606274679615875,6.34225618318021,5.34335013901509,3.46956230502560
0.773055815998378,-0.0800599864036499,0.605944276925500,8.68137426867853,4.72455855465865,4.87632835892149
0.763345039520306,-0.0823573639751669,0.605151527951402,8.65380726927683,3.78270036675135,4.67549292483266
0.756720441210329,-0.0808429015466303,0.617695761249324,6.84421636585497,2.86094677710075,3.64263815978601
0.750210359060945,-0.0738386282173817,0.630003704750758,4.44018621118582,1.90532746179492,2.42954681334034
0.746538081830051,-0.0695019420210270,0.634256188597241,3.19996580622075,0.979440039157728,1.51307825600793
0.747230448394523,-0.0687295571623882,0.636352618412712,3.15423077148124,0.429099829098624,0.952281560564290
0.752465844411579,-0.0649622379694573,0.637069560849675,2.85839207880305,0.203060917486596,0.464842080282188
0.757234726904713,-0.0630795790727314,0.641666777144425,2.18628631597327,0.137191256512440,-0.0173323419000259
0.760335198718203,-0.0619108743414586,0.645488749235026,0.975568060407916,0.269522082078218,-0.189152910419531
0.761847650135797,-0.0640464538606350,0.643872716701248,0.805673650489820,0.502748404638939,-0.103812528350175
0.760858152496927,-0.0644793877266849,0.641184358127338,0.449125611225755,0.634742130521928,-0.279902127616803
0.759511111431266,-0.0625455854693678,0.639368017115772,-0.0493257070465478,0.556759380743178,-0.751008738367792
0.761196207615060,-0.0628682180085287,0.638888000529704,-0.496242719526303,0.541715119657069,-1.08462486399569
0.763108414440473,-0.0650578516596698,0.638444247355616,-0.675065561966776,0.527509385269711,-1.24554986593227
0.763385006193632,-0.0666140531913824,0.637339307018160,-0.887209211257212,0.531644581540204,-1.40663331947332
0.763356320306270,-0.0677456483136938,0.638769950897123,-1.07244263772506,0.669543638533634,-1.52114954113404
0.764558910431986,-0.0761099342492836,0.635941858826589,-0.684363884194884,0.791089379966108,-1.53770819384749
0.766211798485134,-0.0811280650771018,0.635805511098699,-0.356212621895338,0.904127249299535,-1.56533000462598
0.766486633623878,-0.0856318178471644,0.634533535909984,0.236180451980707,0.996472952882138,-1.51291480958781
0.765703688005631,-0.0872219791186332,0.632894440273338,0.607457663578949,1.05002972202730,-1.50446653338384
0.765093233080136,-0.0880348820612531,0.632517462103219,0.560985702103112,1.09514655073142,-1.55317112346673
0.763990718025295,-0.0909083491498341,0.632502236399722,0.732534188572073,1.08420068441216,-1.58679204686235
0.764723139203041,-0.0925807162613942,0.633823023074394,0.292671252806268,1.20525543802088,-1.82610951087272
0.763986840023275,-0.0887131479720091,0.636166762738764,-1.02629508502946,1.40287743543284,-2.44478251061707
0.764746932138876,-0.0838381573074513,0.637184249206277,-2.41489233344516,1.77300974022011,-3.35583632689403
0.765728302858894,-0.0818557103425744,0.638926150543402,-3.53766254209098,2.25847182825814,-4.10377932091084
0.766308990350882,-0.0768862112282482,0.640416048538020,-4.72385586201041,2.92341564774288,-4.79880603520839
0.764522956570914,-0.0740942464226885,0.638557282356270,-5.44835866164935,3.13585825850840,-5.77316365421475
0.759436923044987,-0.0756422446462111,0.635718802002818,-5.41446046958360,2.74472440872849,-6.82751528992878
0.756177716822213,-0.0774274858342618,0.635220402990961,-4.80714224617295,2.23414437618204,-7.57204684027459
0.754437791963387,-0.0811702453237634,0.631452451019984,-3.86086772750905,1.66108169670188,-7.86831750434587
0.753884872895650,-0.0899632380901606,0.627887161251578,-2.34899878822683,0.778024013255916,-7.89675452715056
0.754146529958814,-0.0982927936525921,0.624728675744780,-1.20792397726251,-0.202051293926079,-7.83942696401047
0.754344692597867,-0.102307657219205,0.624386146669378,-0.304637602296053,-1.30672687052337,-7.66376076037840
0.754786914415932,-0.108771184796948,0.622076562746234,1.31792254251258,-2.19638182700740,-7.39615120292725
0.760125510760680,-0.108024498910590,0.621787750920037,1.10107788064742,-1.54196262406016,-6.48267965807886
0.768322508219450,-0.112690942048911,0.638278167102550,-1.39148637441259,0.0371139352507739,-5.46989803122891
0.768739740818862,-0.107001646943914,0.646819409140850,-3.94075821624096,0.625171363434059,-5.68943470198261
0.756674983474216,-0.0975470222365904,0.655078274016413,-3.30208789409674,-0.0176374247525809,-6.53114619124806
0.751796974220534,-0.0762260115180408,0.638751339325773,0.401333504733120,-0.490207855504547,-6.67247636443639
0.763766487976914,-0.0608257259015989,0.646682037457481,2.04919666255245,-0.798388383312623,-6.15012654515212
0.785511874582248,-0.0592777750766361,0.651546198337556,2.93881484711610,0.0996965479673864,-4.80939117994163
0.804227017520597,-0.0715830160638620,0.655775360045890,3.57902907028605,1.60874128385309,-2.34871564425900
0.806120298283573,-0.0737748536107121,0.649313685496692,0.843039077647120,2.98819992595055,-0.219271531638877
0.796471753763492,-0.0773670316838076,0.626012718040420,1.77268567754825,3.83006500558016,0.767804955571284
0.781797248545787,-0.0717588104439519,0.599965540053105,4.33758881560701,3.34573056333553,0.445602415899881
0.767652508905413,-0.0620936679831088,0.609909451795418,4.70067146516022,2.20038594146332,0.610255497104528
0.764583737686746,-0.0704504372466509,0.612760870351450,4.91114206907530,1.11478262514156,0.740756347773670
0.766334373841581,-0.0821866011181361,0.618556624800843,5.94883927790351,0.823804111850077,1.15578604420876
0.766052117001912,-0.0814621114710930,0.628203740154025,5.23049912371250,1.03962368229810,1.12744287831827
0.763078302599435,-0.0779860315648530,0.635014611130148,4.37333278029503,1.29925957458051,0.955026597746113
0.758494138879077,-0.0763415601787801,0.636282305399439,3.32897939905620,0.994893328151503,0.280293366992729
0.758112606636427,-0.0748150780774736,0.638439746059891,2.28026572413144,0.879036829262889,-0.289284485902740
0.758427198337035,-0.0700472642935393,0.636398060626727,1.90874961245510,0.938538951269507,-0.475489751594935
0.760437784721946,-0.0702387530764652,0.634605647490402,1.54355829775197,1.15945406373036,-0.721871685363688
0.762261275976491,-0.0675993955373311,0.636057030864047,1.08230088388005,1.24206978724450,-1.03134532279936
0.762796692929471,-0.0663448725361730,0.637095638979555,0.755833783676303,1.05729418827344,-1.31465504486016
0.762217538142389,-0.0656153420359011,0.636782990262506,0.548232912542764,0.853452669176608,-1.57164785233304
0.762766212821713,-0.0650421799598193,0.638466048541928,0.496150202586236,0.860863957773112,-1.71975781744029
0.765044801175189,-0.0644415672488077,0.638342086002899,0.0233120078403917,0.970845373888773,-1.84614785937744
0.764817992537983,-0.0709302953724878,0.635920090541244,0.413077915084758,0.802122857903447,-1.79196570274753
0.763988621870148,-0.0732125222009407,0.634037912589675,0.459693925273830,0.698559579591618,-1.74519134827067
0.763494906173266,-0.0759980725829333,0.634552424177688,0.588536304972751,0.661996452930618,-1.71033039180871
0.763264382980359,-0.0789148055913964,0.635116758011530,0.862547914726372,0.557672183596356,-1.62551232135669
0.763346666631251,-0.0805977568180830,0.635131988359853,0.776605527552775,0.562721831489376,-1.59473498622659
0.763134899138619,-0.0802973373269483,0.634984543866648,0.359124098093099,0.804323813766993,-1.66433895770206
0.765209018179555,-0.0770760854869047,0.637235587400982,0.0856675256165098,1.08598825988037,-1.89484069074580
0.767004995004544,-0.0716941636134139,0.637689802318681,-0.266458393923243,1.42069777606652,-2.28860002980645
0.768225101177752,-0.0639609131748315,0.638792819575661,-1.45048705788460,1.95217178444884,-3.19156172473619
0.768335035359270,-0.0581736247775969,0.638012891923030,-2.55560263215074,2.29465540572830,-4.42362524614652
0.768930721047629,-0.0527484735667869,0.638056899010816,-3.47521428774787,2.45112005336153,-5.71372038410236
0.770129425568548,-0.0531800577030819,0.636369578868322,-3.91306887192490,2.42253437841258,-6.76850488980882
0.771080687319101,-0.0564866463297334,0.635500334777258,-4.25377947210708,2.27620093300301,-7.51259035892684
0.768755012633639,-0.0613360621128889,0.634130417745547,-4.01531322150888,2.14944071287536,-7.99377955189091
0.765153099061547,-0.0676717234212827,0.631869786342241,-3.36261312873923,1.45449073771040,-8.29430782000726
0.760909007519200,-0.0774428324881123,0.630212450566798,-2.14898575836458,0.368144814637083,-7.95261817142979
0.757768853689976,-0.0882944878929680,0.634700840711862,-0.589062928396092,-0.601237304979308,-6.77983503389120
0.753216910525500,-0.0951617245346310,0.627624101399767,0.928192110960204,-1.58583551241777,-5.79448213062796
0.749668690943149,-0.0984063477965890,0.623501567222213,1.02080600288385,-1.83548931562927,-5.01791125782460
0.757444625445064,-0.0938305883349587,0.630866285254485,-0.970060217386987,-1.16280492497130,-4.91981465275818
0.760594634477544,-0.0909245451566849,0.631758224249477,-2.60668918279904,-0.423279202736835,-5.34726950953202
0.760444839200731,-0.0852258494220017,0.636531684877420,-4.38290792671030,-0.177435064241270,-6.18357057027089
0.754866998618021,-0.0592799651029250,0.630514728891108,-6.81971568624049,-0.442514722382006,-6.94273886819050
0.763308519240770,-0.0664204611255154,0.640666125722123,-4.86499410324802,0.0682628286136521,-6.43683390434734
0.777250298484794,-0.0659883825583263,0.644305710667906,-2.98349079527077,0.644905773963963,-5.30927593053739
0.786422936560844,-0.0642182993336503,0.641954977966331,-0.905059777417530,1.16769164519549,-4.01762241372116
0.787496754079841,-0.0618905609079207,0.634633624347963,0.415531311782024,1.59650043429840,-2.61292782080539
0.789202282610457,-0.0739784688647548,0.631934933700043,1.98981271476615,2.24035389150829,-0.941082418699998
0.788046312486194,-0.0803803610077967,0.627855518607657,2.98486581365561,2.78041944884008,0.262226253326923
0.784528723606206,-0.0734134877932565,0.613863494588116,3.08785501964232,2.92956211981772,0.0935577303024759
0.773383496696808,-0.0580232332836508,0.622851300708386,2.82642213998538,2.65809554527739,0.481030815309855
0.768784006329394,-0.0638651768991094,0.623139325326844,2.17942615137176,2.20696358568291,0.540608615167342
0.766492977212856,-0.0695394510229231,0.623731404772062,2.58079115099538,1.74121502518848,0.502466923524350
0.763918438428056,-0.0677078282375216,0.625745173393558,2.26427681179366,1.43953191042700,0.199605399079825
0.762602015233095,-0.0628650431883631,0.634140163144249,1.23845643549998,1.00820264033831,-0.174956674139744
0.760450908927707,-0.0618293325315214,0.635439212476856,1.18122002231136,0.865018292492003,-0.174580525943570
0.761255068668595,-0.0623916618906475,0.635607642722673,1.17152749480602,0.888870275225807,-0.302600505800974
0.762910447330652,-0.0614500110901726,0.640223403171587,0.367076685569755,0.763444611273090,-0.601597713489351
0.764166135627078,-0.0621114337887957,0.646059780574014,0.604579926507321,0.665032708214969,-0.321477711204834
0.763959414776158,-0.0623135098358267,0.639584495778623,0.860382858257305,0.814905210115772,-0.371125480264216
0.764527277670807,-0.0602959652118673,0.637821433481526,0.351107000944924,0.909394397938543,-0.684805889707621
0.764954276255206,-0.0588445183007360,0.636712309216370,0.413889997768157,0.828610878032803,-0.919249506371183
0.767523031657762,-0.0610519420499630,0.635148857106397,1.18513895349022,0.888107634533935,-0.912999643308836
0.769148679571751,-0.0632272402443135,0.633338878648558,1.38321649876207,1.12869712586558,-0.875876770883493
0.768826104211944,-0.0689079105736517,0.632010313153851,1.13548520581369,0.871824314552483,-1.13462696901572
0.767371167254175,-0.0730476895019310,0.632227166988669,0.819083779784547,0.648513603500297,-1.49290216708106
0.765950034603400,-0.0754153835079825,0.633097592505629,0.589426033884636,0.659855971866675,-1.80098113033223
0.767191845735029,-0.0766625332081103,0.634932011971664,0.0587101268835439,0.893125712829694,-2.08237990062531
0.768207422864114,-0.0762187598508107,0.637103168035422,-0.602150135555843,1.19706766812673,-2.46390677224098
0.767653652309439,-0.0727321313461559,0.638295907728582,-1.41575268671908,1.55087216038039,-3.27887452439426
0.766763787023338,-0.0670811245847686,0.637880653068745,-2.62829634293646,1.92607106086775,-4.37209425135852
0.767134357339392,-0.0646051248818682,0.640892119107881,-3.74563268894490,2.34503603001728,-5.45702632737349
0.766022688913830,-0.0648029551174558,0.639562831422852,-4.74001987373976,2.50224591689569,-6.44064444004767
0.764242077393135,-0.0686500296780383,0.637943308795978,-4.35690880713969,2.27596331759442,-6.99980305493084
0.763735963256189,-0.0744401214534729,0.635924647005456,-3.50681669467889,1.86173846157434,-7.12516697127527
0.763505250713432,-0.0814571372752476,0.633892819337548,-2.65883911402875,1.50486039468931,-7.09202300949157
0.762104151960436,-0.0863827244410395,0.633956833319394,-2.05425773951911,1.08326998722878,-6.97382800379596
0.758999556676771,-0.0907297880474172,0.633148970012848,-1.38464123708624,0.670508372822412,-6.86333786333628
0.757059665765846,-0.0925531201373644,0.632592793394398,-1.29562007236893,0.269796267467129,-6.60236702350788
0.754489190797699,-0.0926803303128725,0.631596465761618,-0.603464003228882,-0.254991684984663,-6.24560961344663
0.754634642497467,-0.0941369502923884,0.630572956453114,0.564858863136647,-0.957750851346053,-5.39040324893505
0.755774003744757,-0.0911218339794905,0.633417169641206,1.07616256203382,-0.850301401839827,-3.89875551785195
0.764010391834554,-0.0916001177311157,0.633358958861669,-0.853128290417637,-0.561588268403956,-4.30968165786344
0.764647895320667,-0.0792170769603830,0.639989054543899,-3.48477380506834,0.581933615669675,-5.36740486544401
0.754247183667856,-0.0827965590613552,0.639143441947038,-2.53303998881778,1.12433977336700,-5.19960179635859
0.758035264858534,-0.0880955424474406,0.639798153302423,-1.66978577614704,1.53546989843884,-4.90161310325251
0.760810183923142,-0.0795285013152665,0.643371195154290,-0.363140005688680,1.66656170049916,-4.70364014860938
0.770790563802523,-0.0890095010422718,0.633881986257944,4.26821254950487,2.22717475186743,-2.90804265650714
0.780413650774068,-0.0909133999387201,0.633879215438242,6.34826184238791,2.61611300967033,-1.05437220946131
0.781734863513239,-0.0813538656944407,0.637953024567415,6.32051220118692,3.26859609659856,0.00443141151008408
0.784265891324283,-0.0696611410296722,0.644776722757927,3.86252375544097,4.12265856286142,0.606940469435039
0.787278854591150,-0.0605963764647506,0.640169347417176,2.08425136229620,5.15441700741142,0.644185918192666
0.781284115700466,-0.0499501303635752,0.620236108050178,3.00439194924023,5.63694351621827,0.697835662976979
0.766354413507747,-0.0528775790481844,0.615724989460962,5.52857202278224,5.05028567793173,0.895307295681336
0.762178737549866,-0.0494354775008783,0.621627930455870,5.42861111928068,4.37997798355343,0.929244487089021
0.761049795643816,-0.0566346988781363,0.642111546922665,4.09398695036603,3.44401323094754,0.898517731286988
0.755550277846921,-0.0643442778261937,0.645856907274610,4.06119947816286,2.56056138143592,0.751937243182950
0.750178308305517,-0.0631526297440128,0.643492936631478,3.97572840960126,1.87350679022207,0.373092149330678
0.746240687390590,-0.0591672318421958,0.642207564626455,2.95093955368338,1.33077288154250,-0.101087057594949
0.747164218723759,-0.0584994357662004,0.642560021390012,2.21054263862406,0.997248118046290,-0.340913886913082
0.751304660078947,-0.0586516684004649,0.646032987321903,1.49301452064761,0.789737000232188,-0.557214865746753
0.753426594448554,-0.0564524685201060,0.646752320037391,0.803359244044554,0.745656984150908,-0.793335494244225
0.754410427390063,-0.0551505454340245,0.648283037066072,0.0536239194279268,0.768699505487819,-1.02538174449537
0.755131313287410,-0.0523310024505543,0.646235901180595,-0.399600024648869,0.709497263938330,-1.28966472409325
0.756310807161760,-0.0505610958416671,0.644662928108199,-0.765463111162987,0.673512404956143,-1.60323488710024
0.758068043956071,-0.0490015009092644,0.644990902141072,-1.30285568264289,0.655384302415705,-2.05171976342034
0.759143316705142,-0.0486081845118525,0.647871035434376,-1.98896690962429,0.650380012040240,-2.48996014306648
0.760916407731982,-0.0626419560400078,0.644419777403033,-1.02172046235961,0.810632475732120,-2.12409361848279
0.761240958437280,-0.0722984332169210,0.642354844217117,-0.680466496668769,0.773487177283774,-1.84038645991406
0.760371600284899,-0.0789906800587762,0.640774507555170,-0.134295674507839,0.701315217417900,-1.52787692257214
0.759626481690868,-0.0840767327573421,0.638485853658781,0.286621710487216,0.718263008385927,-1.33372599384311
0.759427800184263,-0.0838912081790265,0.639610659215633,0.0178552110228510,0.722768712444181,-1.36591416799314
0.759911056910369,-0.0862154139455834,0.640889087015165,-0.00610187154114807,0.969894080978489,-1.58470322462052
0.760920091330802,-0.0845959155464588,0.641155730358210,-0.377007836712965,1.31548425061843,-1.80839146596931
0.762671869231857,-0.0848633589727197,0.642826910750351,-0.505145682913482,1.77696722746653,-2.16337036579830
0.764348802152078,-0.0788519316728761,0.643541436132866,-1.87424090757018,2.43121619330272,-2.97534491309995
0.765256341131752,-0.0723004104083173,0.644368611485554,-3.43838068885240,3.05906478093218,-4.04577996699531
0.764878033357685,-0.0706859559313551,0.642272176648509,-4.56973445892879,3.30253355555225,-5.16391238681660
0.763844785206116,-0.0726144079003093,0.640828293307839,-4.97189265269451,3.16965146891927,-6.13968065840982
0.761649726787139,-0.0736794761179941,0.639664450072851,-5.13409602184506,2.96748246049069,-6.91228643284459
0.758834979272015,-0.0759660259630133,0.637735420026580,-4.63890936466865,2.66115564722901,-7.44514858576053
0.757431111741440,-0.0823563286295741,0.635032313296798,-3.54898952804763,2.11778168524643,-7.56409115091995
0.756649775643714,-0.0892734040083802,0.633701674262911,-2.13211821227816,1.56320518427647,-7.39410676518921
0.755569426117907,-0.0962685391549992,0.632972958344909,-0.628178281004327,1.02404593514412,-7.05904478686242
0.754492624888136,-0.0994909338064167,0.632465353830357,-0.580650301741253,0.454021228196199,-6.61549421812240
0.754390298646310,-0.104266298622538,0.633818741637782,-0.591671148694213,-0.0463753777430173,-5.93088097742574
0.754087098857801,-0.107400414797459,0.634978889302880,-0.144690487422994,-0.390372255463064,-4.88364630323603
0.752893251466728,-0.108999638975202,0.638988850570522,0.671807289455501,-0.958066028002653,-3.59015064603159
0.751330924151042,-0.107783062138866,0.630478403208753,0.301193621466444,-0.892572131551704,-3.49754742683449
0.759381821280140,-0.0975745014008289,0.626269636042672,-0.940662518320721,-0.500276539909444,-3.90057302335233
0.763327469157989,-0.0957215654947379,0.630699415266002,-3.08573484975012,-0.0609075587252299,-3.99715663750209
0.761859121259503,-0.100211942361699,0.636700924337719,-2.70699600799549,-0.162287820771674,-4.38888122379068
0.753941520122587,-0.0797356022408539,0.639517603544496,-2.84399663793570,0.106982152059989,-4.55123303895500
0.756204387120565,-0.0750595082184703,0.647649899918048,-1.42122235128948,0.397135818142304,-3.91608773859746
0.766376870510009,-0.0802716770642613,0.650987539557643,1.51888317139269,0.640504144829680,-2.82120558260767
0.774593962414266,-0.0790022104401404,0.647880526585444,3.24701994476000,1.19192623891262,-2.02569545860736
0.778474143750679,-0.0759658049091983,0.642268557336929,3.73265219307908,1.74295067768813,-1.32685042200181
0.783528206093984,-0.0800682544369241,0.639915899276020,2.34905161015045,2.49354666284275,-0.567767630072163
0.783936655501060,-0.0815572942135913,0.633030861629584,1.21732554234223,3.14292324882059,-0.359493346430816
0.779870360157726,-0.0798817336670099,0.615972952257615,2.23976946281571,3.32309685477878,0.0989304348982901
0.764475195289327,-0.0766611681306226,0.617338360327956,2.99292885078754,2.72841326448980,0.545690880285800
0.760069629568865,-0.0731016149797156,0.617579434001222,1.80129771316170,2.10316372663844,0.438204940577942
0.760030225243476,-0.0835014434544029,0.624209374594455,2.12883340354898,1.53875293638552,0.479484042286466
0.758597627904209,-0.0874053841941263,0.630643545286923,2.13179173244432,1.12342646759340,0.402978847120653
0.757411671801539,-0.0862649273281579,0.634193111659494,2.21412114958068,0.960807112027458,0.277176280207481
0.755582363576428,-0.0838463440881826,0.639933752024278,1.28890749077248,1.00442722832435,-0.177452101847410
0.753319825239740,-0.0825162826687947,0.644616745927087,0.618895620273123,1.07473239450605,-0.701210322745483
0.752763038284417,-0.0843788533949770,0.646065612212892,0.515883158274735,1.14471661036059,-0.984061862945105
0.753653377547587,-0.0841814818582258,0.646807506890762,0.783225288247373,1.13094605159548,-1.03971472445732
0.754432856804520,-0.0844752619289150,0.645002234270287,1.02742129217609,1.09958538690737,-1.10973114074922
0.755786450200639,-0.0822996212219058,0.643628215331071,1.29209511717104,1.08939146731873,-1.17859753686642
0.756852831462695,-0.0805323073847458,0.642619750950385,0.989838531538031,0.875662034740310,-1.38630508758749
0.758529350998694,-0.0787494040466289,0.640873888375348,0.890190771824085,0.713869487180737,-1.56105660748783
0.760376951025064,-0.0794171691325036,0.639261392092400,0.911099793904564,0.743462290507124,-1.51300599199103
0.760719207796932,-0.0817635430114805,0.640365634328053,0.824531420326649,0.616746091570621,-1.39366176626024
0.760571749992157,-0.0809314615462040,0.640331310171981,0.765992658793498,0.776293258512067,-1.29071901902396
0.760543056259218,-0.0798914932180361,0.640340886658907,0.553237968281729,0.895702175990443,-1.42156179423946
0.760826881720689,-0.0769522482583947,0.640944844956165,-0.0786378175854547,0.931258867516099,-1.81192857111488
0.762132866466546,-0.0742328345639123,0.642098412690062,-1.06930189811370,1.12995805362616,-2.40059703750642
0.763136588666161,-0.0726657616839505,0.642239885952235,-1.69702483573016,1.49239853905644,-3.01627853523126
0.764289732082583,-0.0730476977331441,0.645597312391397,-2.84243900488221,1.94916038964731,-3.79557276478128
0.763392643256109,-0.0703923470329887,0.645701983998615,-4.45135817402299,2.41294120583845,-4.88657638951199
0.762089184636524,-0.0694075271923052,0.643822126875950,-4.82819930395269,2.68292926794151,-5.84625523371480
0.761369622589354,-0.0696744605295560,0.641779646154298,-4.68991538894556,2.73228486568691,-6.55559966901240
0.761223831577349,-0.0708582308087194,0.640400128472390,-4.28820906577632,2.50150150169115,-7.07420317798356
0.760918059384193,-0.0753826166299966,0.638810664157701,-3.66102239612345,2.15071586869132,-7.34901231710846
0.759962554764862,-0.0798224815952303,0.636701959467693,-2.99196604858883,1.82457232148238,-7.34647784947478
0.759429500142658,-0.0865602109280478,0.636789505427392,-2.26755684347237,1.46092080047501,-7.03521762210303
0.757097901247637,-0.0898091229312044,0.636303898610009,-2.06364374364681,1.04210666523586,-6.75486686462726
0.754548867422095,-0.0933789409425188,0.637615966703691,-1.89540843111936,0.595079170924733,-6.38185448971179
0.752722633582077,-0.0966977186014497,0.636781236233603,-1.80033311117176,0.299160049978666,-5.89262767334352
0.752283565267686,-0.0985977384940012,0.638485943480340,-1.57804469294594,0.0417424508255850,-5.12099021924733
0.752705326182792,-0.101950306175982,0.639071125641372,-1.01505221738407,-0.165101969082412,-4.29397293554954
0.752196986143365,-0.0980642013067313,0.639610297335547,-0.764226274071889,-0.214183607301133,-3.77518758576412
0.751803687665119,-0.0921608189385196,0.639124635617092,-0.448913145204615,-0.491853177584885,-3.57553093045004
0.752464362535874,-0.0883172869360290,0.638385386484501,-0.0647153158769585,-1.03003196144500,-3.47736155994501
0.754347232231032,-0.0853806315619471,0.638044919259875,0.475719195367559,-1.52308633084991,-3.30668867942962
0.761856861691473,-0.0818587065802566,0.628615412054505,2.43060940993485,-1.21839872575015,-2.69038826971315
0.767001553828065,-0.0811093727193561,0.635180475242734,4.66574808941757,-0.581167625278689,-1.64286265689151
0.770366558032811,-0.0707126074050262,0.642088387108883,2.71595298930949,-0.282161944043550,-2.33077615820058
0.766194393701823,-0.0713405321913444,0.641939873298048,3.90733946615716,0.416117298317530,-2.57779758696578
0.759993392690238,-0.0814058120960138,0.638225790579491,5.46083965161747,1.25544461657322,-2.13214123920877
0.764234306967026,-0.0850231408276748,0.640437723190114,7.03369061347273,1.95288130711285,-1.46260001134093
0.764347781508881,-0.0752400595889289,0.643850259859438,8.51462996549661,2.23317688088933,-1.15448311489533
0.765438335271025,-0.0673324754773652,0.645570745400870,8.66511791586515,2.13318906749748,-1.31088873081339
0.768531331622866,-0.0632058634124130,0.643959622633491,8.26679590413406,1.84443706081290,-1.18148130939039
0.779625618953483,-0.0588746631136423,0.650391848824097,6.96901315040823,2.10136183107771,-0.788403940823731
0.785875935127710,-0.0475679509403601,0.661189706765686,3.70469359546953,2.69145922905363,-0.456830107873604
0.788828450788714,-0.0433093612233119,0.663210575811997,1.29809506881496,3.77024787110644,0.182515566155625
0.784351944726695,-0.0506919174405832,0.645282126747479,2.46730362396151,5.14130355143397,0.851954823517452
0.775257350311018,-0.0539831002802453,0.632809312709512,5.42934973880099,5.11064598476654,1.59803297758041
0.764653428183844,-0.0486959657851291,0.626557360455780,5.32616870471390,4.59967252067083,1.62716656080307
0.759426283487154,-0.0616390630586502,0.635695062530561,4.27566618528114,4.20012025689750,1.22624974821269
0.754675235096076,-0.0605967467338812,0.643852875294946,2.15867673686904,3.67604985229054,0.594912257227436
0.746840181707244,-0.0584309421267321,0.643129260808424,0.812153687063856,2.66987574987790,-0.151774462551360
0.741219243516134,-0.0563535344713266,0.641220978993997,0.0494030984907977,1.75455217831073,-0.821696852029987
0.740984977412910,-0.0563904633107529,0.641767852085495,-0.522349699483958,0.890503917972433,-1.38243379540521
0.745415412823528,-0.0575817602373650,0.645150984364299,-0.592743612144450,0.351475484281213,-1.48011275931773
0.749524607163234,-0.0589831826328044,0.649046228537003,-0.653907519325261,0.278566721187485,-1.33492546074494
0.752908118645162,-0.0583377628539872,0.652387957874508,-0.499380068594853,0.405660926442846,-1.16283666557280
0.753753888556278,-0.0585309378557746,0.651908762040088,-0.930056911618611,0.538688831811300,-1.17888268670396
0.752724914954541,-0.0550579293714691,0.650911009348386,-1.61006811317808,0.580502844758640,-1.39007871399687
0.753233860332231,-0.0567919023655480,0.650830406216099,-1.06807911305498,0.642557093124970,-1.41591088242520
0.753731304491541,-0.0559318145292998,0.651251865837360,-1.19877280063489,0.609459568562620,-1.35521818939171
0.754344508731943,-0.0555666197534909,0.651963695220903,-1.79155417795826,0.584877672961202,-1.40674684550822
0.755529225598849,-0.0626869332155732,0.648605674966102,-1.28061322164316,0.426050335041164,-1.39463447970692
0.758070383974762,-0.0670195518516749,0.647666747726885,-0.694743066510115,0.511014573495678,-1.37340969404125
0.759736481677711,-0.0671865859718319,0.647073341508126,-0.609081523775165,0.778434076103559,-1.34926758066742
0.762595726719306,-0.0664154785372001,0.647539814908044,-0.573342323663652,1.13499299068679,-1.37525945448123
0.763778494594452,-0.0652885353674843,0.650107186997079,-1.11331082282215,1.88578452813057,-1.81370871052091
0.764016903926881,-0.0597795011072320,0.651016404001341,-2.19409881865079,2.54210346711572,-2.54629718632397
0.761872807592001,-0.0576050540588813,0.650752479488329,-3.36291312332710,2.72802386932967,-3.52993667230800
0.759482636228461,-0.0586958397434152,0.649576723889322,-4.00934275416849,2.72321540461827,-4.58183627237572
0.755518447116865,-0.0613031786046554,0.647255058359072,-4.15654744345438,2.65376599582192,-5.54604047903728
0.754184239406629,-0.0646338340550369,0.644761174806133,-4.22411220505968,2.44822834413969,-6.42507617273979
0.755087814688069,-0.0697599527047953,0.643751467191033,-3.90620854526362,2.26049455477885,-6.91367183577083
0.756409870917024,-0.0765605397419343,0.641552368811686,-3.51144892963555,2.09746750584086,-6.98811240773215
0.757203475828453,-0.0812956581872229,0.641107061677738,-3.48874924330444,1.67936904481405,-6.90303427749196
0.754916433040164,-0.0870439148991272,0.638820389800589,-2.61659760118548,1.03297245331697,-6.60461506968339
0.751595146470352,-0.0915278066498604,0.637252184473626,-1.73142252650225,0.326932873622674,-6.13338559696250
0.748174861300061,-0.0935232953079050,0.636711216532900,-1.18653700136859,-0.486067332243279,-5.72705457824645
0.745400982022643,-0.0958610185723133,0.636436078443478,-0.339376043363943,-1.30193405553250,-5.46131980528925
0.743882902801510,-0.0951028342805045,0.633872971150171,0.568490345611572,-1.80103447695601,-4.82568772647359
0.753688619356532,-0.0979834615965923,0.639245320977103,-0.311470428259947,-0.828769056400794,-4.12487346882101
0.759858992049408,-0.0969863971262317,0.647867892684685,-5.63719531185768,1.03004256772984,-4.80540151946508
0.757556010751642,-0.0933366892081602,0.657895831350150,-5.90802609821202,1.41192077230024,-4.78377903017077
0.741601051065494,-0.0878282819738656,0.657396491278820,-5.55875807902789,1.14097364409835,-6.18390666732211
0.740401077301482,-0.0645875037701558,0.650136220854839,-4.58199981315025,0.569507230292883,-6.60608982348149
0.758140547275582,-0.0657672775700646,0.649015206053202,-1.98079234018263,0.181769631193278,-6.33535092816968
0.773364642847516,-0.0679083394119064,0.642856769741981,-0.219648678594132,0.138926506058343,-5.30893351091074
0.785831245850824,-0.0760098691780090,0.640143230897965,0.436713590358877,0.591267235311566,-3.69858058155549
0.787111356470225,-0.0812113748435263,0.636619451811000,0.296893895179308,1.09578432464181,-2.08874916998990
0.783464709310304,-0.0842834512649790,0.629678712572936,1.73413097631430,1.60004608592966,-1.03345311291711
0.777436442852420,-0.0831882742883768,0.616518694295928,4.59749014922300,1.94461860125647,0.384526544986711
0.769019652535689,-0.0834800387495680,0.625693365247976,5.42323488483752,1.54142827571019,0.513128094044970
0.760990870492579,-0.0744231833415485,0.626609914941750,5.39542151218422,0.892594636796447,0.308797772670182
0.760581932661068,-0.0747808888727921,0.631805880193403,4.98590994173222,0.531847344622493,0.203977837585360
0.761540712602013,-0.0731269213266930,0.635457319688907,4.21816568916910,0.539286924740262,0.124493959973171
0.761654037463679,-0.0720251543780269,0.642916324956537,3.35890970555919,0.749697203302971,0.340459232770153
0.759422245037395,-0.0714095526260208,0.649077184457244,3.04288464936777,1.01271585045735,0.369808449943143
0.755543868108737,-0.0686641695485956,0.651211507264666,2.03534772391387,1.07477977065839,0.118952864696888
0.751894557767890,-0.0654215831752966,0.651523738692722,1.13336064290773,1.12191261738294,-0.365634619002069
0.752057952067884,-0.0664928796073908,0.651745965528312,0.829027808431523,1.38629334214045,-0.504834731086999
0.754003342930736,-0.0665499435529521,0.651017210227472,0.575594716344466,1.62448645058724,-0.555330524754644
0.756139968100003,-0.0653914237494869,0.650218016027482,-0.175878115832601,1.73613851236237,-0.764982383933122
0.757117974454027,-0.0682842665441102,0.646402675031057,-0.551188999416478,1.76693092736856,-0.838908687955971
0.758604681229887,-0.0701756786930070,0.644541448506259,-0.592820846233040,1.71761961863317,-0.833064812258597
0.759351509156901,-0.0702875411727515,0.643750235102545,-0.459133380317393,1.65962582945567,-0.859883951438851
0.758794393546953,-0.0684615643297526,0.642517090105426,-0.0189908433559704,1.53355815479831,-0.949281505806081
0.758277567846435,-0.0675318738981787,0.641670171216738,0.277198890687890,1.42576144844944,-0.977033153926088
0.758245544951387,-0.0675464763402554,0.641413562124865,0.0535101402309169,1.30103101339624,-1.04542791091685
0.758493996370068,-0.0685168278078274,0.643399391164519,0.276209757822711,1.28693279966322,-1.07050820017255
0.760067986964900,-0.0750197313597920,0.643047737469257,0.566295394263622,1.32140096639794,-1.29388808392535
0.761118471853037,-0.0779114676653452,0.643204734658235,0.0717237622163316,1.58824350150028,-1.43295128782713
0.761281827304298,-0.0784713122825005,0.643182460973796,0.0330145416190945,2.07402711377767,-1.47274606219756
0.761043843162545,-0.0760534586125622,0.641965506589091,-0.437432844648759,2.42061218163198,-1.89591263330499
0.761012410017084,-0.0689605043144615,0.644340794643496,-0.906546604700231,2.73207150841853,-2.71859092700943
0.761597443863786,-0.0659816377728424,0.645035253782987,-1.42458460882458,3.10608236380845,-3.65950109018007
0.762144551000039,-0.0623058833589651,0.647515823810249,-2.16863972623882,3.37148291550960,-4.64712826675690
0.761843464195908,-0.0630938417925032,0.647742863083310,-2.35540110863840,3.55701409442596,-5.39803280044823
0.759772917221156,-0.0666873825262939,0.644722883856567,-2.35229978281612,3.52111109449216,-5.88978243087915
0.757304933074665,-0.0696712776289412,0.641131599638609,-1.96545441833335,3.20350183499726,-6.25787924672504
0.755764210311609,-0.0739628084535043,0.638371806046824,-1.45933900147297,2.66086875159123,-6.44591097414064
0.755615482534524,-0.0786715653360133,0.636462611874798,-0.793301435157743,2.05584090041528,-6.44906455149240
0.755248309441019,-0.0841059712636832,0.634604847198153,-0.470266230243625,1.39321975181362,-6.32676582373555
0.753055053640202,-0.0872629801175369,0.633736713949846,0.594254058246477,0.531689702130063,-6.06196464765549
0.751202465534137,-0.0898423785284786,0.634517121184070,1.78022718942263,-0.379507683832689,-5.54722119491570
0.747391342901806,-0.0869441156254254,0.634575021818878,2.95356790307944,-1.45083489419023,-4.93924484749122
0.745254297294776,-0.0848851773865549,0.632548045861109,2.49156624661981,-1.78411966869560,-4.02010526788864
0.755927979113902,-0.0945477750277400,0.644336598147739,-0.794331476896737,-0.907644427805623,-4.57674144629431
0.755621859773150,-0.0845521878775739,0.662933695829328,-3.04262484209404,0.311025601556854,-5.10574535245134
0.748415233764517,-0.0857621529697753,0.662250388429963,-4.49063024871190,0.954436615844727,-5.57823842917241
0.748037035283434,-0.0751488343688667,0.659376345259991,-4.91289389888207,1.08067189518087,-5.97620183117475
0.758399794125700,-0.0686276403144606,0.651461375739040,-4.41634257760094,1.22742246204576,-6.21266195504125
0.777830576766510,-0.0730727048862995,0.651929362928353,-3.30630994488564,1.70321751962101,-4.63041559515966
0.787975139072303,-0.0826392139094852,0.653904421775477,-1.52444527533026,2.54693763630673,-2.74417875931854
0.781797177469062,-0.0708426158031866,0.646783183677572,-1.47592463695327,3.50146792503598,-1.54641199505641
0.772071641797528,-0.0667659643797410,0.631409941194230,0.576597536510631,4.40990848243868,-1.01628285920658
0.769200883141476,-0.0681616722422219,0.624633471362356,3.39566518893314,4.92361139070246,-0.100402011148438
0.760226902144889,-0.0636813892327493,0.635447249186546,3.84323556998162,4.53490754790240,0.302193396594586
0.753701822228029,-0.0579028487383800,0.635358444783339,4.19422171151828,3.53734907599340,-0.334924644660965
0.754462492731987,-0.0646535466123947,0.636098296917653,4.16371973685775,2.67118509347533,-0.448246967208200
0.755095105755338,-0.0664033891940517,0.638796376297049,3.19360127175251,2.09933869549065,-0.199274260132006
0.751765486949398,-0.0666506309096393,0.644008706556095,3.11723732995952,1.56940675873477,-0.132651480447991
0.747709670789475,-0.0665498696846717,0.646949953291432,2.99123974427975,0.948997236000245,-0.532892773798690
0.745477367946694,-0.0616994299483608,0.648001276486640,2.35853154563519,0.509895109183880,-1.04038774888743
0.747304460982368,-0.0620149282660837,0.647946643512879,1.97610936931130,0.450237900041174,-1.37301546295160
0.750289494137223,-0.0631649287940685,0.649368032978308,1.97179814654650,0.447605072235690,-1.53787708271290
0.752514603499640,-0.0646306461581501,0.650076454836161,1.66255437356898,0.457187151115873,-1.57628162967899
0.753074632995348,-0.0613108831776921,0.648304979827308,1.18386010730093,0.472743805382642,-1.78885225121127
0.753852068483120,-0.0604673340622398,0.647376977888606,1.05381187070469,0.470128315557598,-1.89573438234660
0.753743943157752,-0.0592972089770295,0.649763514742120,0.580536786724437,0.422345495993167,-1.90220017348687
0.755022036102834,-0.0596936619644904,0.649377859857429,0.634640562823193,0.434773959059465,-1.85528806532071
0.755318816818834,-0.0588614750574578,0.648171244706533,0.365677216157186,0.567180237173694,-1.89742752935661
0.758024307553787,-0.0646124124463720,0.648860198479015,0.138530923202191,0.935598440442948,-1.77273837822418
0.759476296783584,-0.0683769258628853,0.647383023893146,0.229113865300402,1.49111316742372,-1.68101607876134
0.759533812177882,-0.0695972683190359,0.646106916875966,0.0465871880209163,1.93262770944238,-1.94016536476073
0.759772443099807,-0.0665361395229800,0.643968502560007,-0.445069557577411,2.16951795457054,-2.62150812769260
0.760025598066825,-0.0621853794887650,0.643237038889216,-0.913874474652276,2.32646331804350,-3.46451544860676
0.761524168926602,-0.0587983428843808,0.642904761754517,-1.43752086262343,2.40235030024682,-4.38862671594335
0.763461674218353,-0.0595698178276505,0.641910680825154,-1.45238330350894,2.35009038284557,-5.10138121535924
0.763535567965050,-0.0609916452979314,0.640041397085237,-1.51545275907482,2.30118425076595,-5.64764903334591
0.761377844264164,-0.0614028324417246,0.638325430748029,-1.49257761197444,2.13098326511081,-6.17496386739771
0.759047454546961,-0.0640145502120960,0.637037875255042,-1.44675336036835,1.81540450277297,-6.62457363862325
0.757686602509661,-0.0681108414810624,0.636628823942235,-1.18801102406808,1.47699172586937,-6.96660663908330
0.756608737337593,-0.0748812752588106,0.636027145723766,-0.813557826571121,1.06352500072621,-6.91370037163330
0.755041870325879,-0.0809721974927492,0.635379722235305,-0.603245402706420,0.582028878902031,-6.72622817232595
0.752158173711493,-0.0833362866133407,0.634470847716657,-0.730322435250319,0.00507977178957431,-6.60416810152370
0.748336299475656,-0.0850911174661029,0.636197712957054,-0.925254259939748,-0.675766313998866,-6.36830341798766
0.748165000825638,-0.0832285721291019,0.624578424421515,-1.87832747504194,-0.353592068383808,-6.27043476848545
0.753762967629373,-0.0887374914007839,0.628344373660823,-4.08567736134451,-0.540618664856723,-6.30280034304837
0.744530528927951,-0.0966505360997057,0.653449871098233,-4.63217054272875,-1.39390203472938,-6.78157114181859
0.730702670564515,-0.0815640881303095,0.646584100083595,-5.31003927997168,-2.37003128927620,-8.36256540586814
0.743230142256454,-0.0695355241015829,0.668200265548250,-6.01058664755833,-1.89467390711959,-8.50543901952736
0.774817818625468,-0.0789972961570156,0.685570797318764,-4.74114163784766,0.624392602370650,-6.04014390069347
0.792874403408634,-0.0886766933427634,0.680896754314572,-2.92494063582397,3.10266156809695,-3.13143177976667
0.795224285754957,-0.0792194497226770,0.663225106902659,-3.54895338259781,5.38309036376972,-0.660372735922636
0.788080350027733,-0.0773727326766506,0.636317061504446,-1.76793487930816,6.85740496459603,0.918480954895071
0.780080837203362,-0.0735031335638561,0.601743163549160,0.874911813452914,7.07677085755893,1.72216982391692
0.763160421023450,-0.0667463331528130,0.614134742572674,2.50071852044749,6.27649523928198,2.98550531549438
0.756648026070608,-0.0725220051186968,0.617206065805427,4.29450030766139,4.72908096899899,2.85588356720834
0.750757246255252,-0.0757899845999338,0.621165334177828,5.37530049076087,3.28840468733116,2.47820609317330
0.746759649587945,-0.0749341239980553,0.627254336459124,5.57049039124053,2.16874138506463,1.46262221831613
0.744228404697036,-0.0680493475607007,0.637776104763444,4.70474466410451,1.21872454620374,0.565869716941142
0.743191357192425,-0.0668506704119114,0.643213762199588,4.35753171925547,0.578792251131059,0.0737348977538835
0.746195687079315,-0.0679609763907641,0.648620352799158,4.05104428372473,0.346882321437163,-0.439706245608396
0.749417575467941,-0.0653489919408652,0.650216950756111,3.44399475494343,0.386458910430307,-0.955882101094185
0.752228171348095,-0.0641094513296105,0.652987612127313,2.92554291785024,0.473291207624165,-1.16884633011710
0.753850525783925,-0.0644587158200849,0.651549208728046,2.58409099299358,0.698129281638402,-1.35979044765543
0.753982420348302,-0.0616334523418605,0.649856712082629,2.05689099211220,0.618923599898816,-1.67319622050944
0.754567215024977,-0.0615192925431219,0.647132381372168,1.82963854542639,0.388529155743941,-2.03794306916765
0.755398834836659,-0.0621649377209594,0.646004414863525,1.39784450827183,0.277246751929645,-2.26586264409763
0.756699344121835,-0.0609876188610730,0.646216919594908,0.952329332262050,0.290668893449212,-2.46544357387621
0.757539889505797,-0.0627535443844164,0.647069095443010,0.821694704013354,0.346993159831141,-2.39204534906620
0.759151527460340,-0.0696471976544330,0.647523453534627,0.782868126122833,0.629964044285021,-2.04229549778414
0.760665136880015,-0.0744079134817566,0.647600755892530,0.522972027162595,0.912564732537214,-1.69069933346472
0.759903914424584,-0.0752436187113095,0.647038237549107,0.591819724919649,1.18572942346983,-1.58753764774059
0.760170782306640,-0.0760645191910054,0.643775755053433,0.556728589058718,1.27318281385325,-1.66102152781181
0.761575727509050,-0.0750819621539111,0.642652915742050,0.455868274814749,1.30358010034602,-1.69246675226300
0.763137662640812,-0.0736131742067580,0.641603043807415,0.211648899652383,1.46326617517099,-1.71319820110036
0.762906725033681,-0.0705070372285909,0.640813763833776,0.0682360447761965,1.51943392833613,-2.18770209766154
0.763432140568579,-0.0652468321906001,0.640057186948568,-0.670452737476035,1.63593064461208,-3.02472243879046
0.763706786171231,-0.0607521822280483,0.640852428986006,-1.56208237749985,1.71367985485997,-3.99602580596297
0.763480824722614,-0.0587714720906327,0.639015084023818,-2.04793667050171,1.79934835171950,-4.88181002563285
0.763154614571167,-0.0610175978354503,0.638144493264304,-1.91162401872118,1.62755495218586,-5.59787243421706
0.763672130994159,-0.0637382510212448,0.638327864646082,-1.74822054011253,1.45650243686852,-6.14968233270384
0.762463287950380,-0.0657133834666529,0.637831171843248,-1.29640552330315,1.20107573797017,-6.47379589177361
0.761778567410373,-0.0701812131690877,0.638177339394650,-0.659121282562436,0.920054552806560,-6.68024764490622
0.759873779120866,-0.0736853337753403,0.637788696412394,-0.222552828800929,0.661016048085240,-6.79826388484344
0.759530331798704,-0.0772168318650315,0.637737550144700,0.108044736865767,0.288657038500640,-6.75511310932878
0.757306707614539,-0.0807227320907758,0.634399253442969,0.735993221388655,-0.520334527247993,-6.55502206001117
0.753171571623734,-0.0818904503956054,0.630386139732246,1.00316639121848,-1.27568708723289,-6.79241964456977
0.756431885101324,-0.0792793800711580,0.626824672185811,1.27541454133943,-1.50989099356206,-6.33687188017194
0.762051052544782,-0.0806482240634160,0.629979486849781,-1.03852135479781,-1.54533525782827,-6.53453781850358
0.758462461059922,-0.0784131947206283,0.630661132742258,-3.09720174229289,-1.35750895056106,-6.75405615114317
0.748960365969422,-0.0755088581285511,0.629512409997776,-6.05996580653057,-1.39920186179266,-7.29243663517635
0.752556258780656,-0.0726087590506152,0.639431761676681,-7.84944788948513,-1.26218830903104,-7.44891242617406
0.766621731196838,-0.0760532607676146,0.647034954075501,-6.37545846966542,-0.389337621430675,-6.76112324556349
0.786282651190860,-0.0740779106530693,0.654519872631522,-4.59172946311675,0.925431100123803,-4.76309614148998
0.790293021169703,-0.0734931919255666,0.649906985537511,-2.99670657849009,1.82676122513275,-2.93285897574343
0.787733914396066,-0.0699465708752099,0.638646743037157,-1.92187629511232,2.50841809017374,-1.41161636597561
0.782468439733450,-0.0713793563680120,0.625662118802684,1.12197691658803,2.94900130963486,-0.423644922330410
0.778107471058349,-0.0716399369388667,0.615649404540569,3.47308719087809,3.58361749047233,0.700308159994896
0.772854535647228,-0.0727015574355374,0.619982180391280,3.80837684259810,3.49248122767348,0.626891578498438
0.764302471897084,-0.0645998972827809,0.618491097474279,4.55993613962669,2.34756575779678,0.0688179598634569
0.763346789474273,-0.0667629242351784,0.617531012805883,5.47789352573599,1.34481357122552,-0.0924245911166154
0.763177889412652,-0.0657063225846890,0.626162697109130,4.73188932683062,0.840870104535866,-0.289279762363349
0.761742244216980,-0.0641372180717037,0.636126429866371,4.54989784837942,0.191935256220102,-0.396393637129777
0.760622536339600,-0.0643963520193302,0.638244286373068,4.18645837369102,0.0460160486943139,-0.567280653189996
0.762885046325170,-0.0609268411047890,0.642183270479711,3.78695059275416,0.276213745910352,-0.612318827803608
0.765081602582665,-0.0601064126417154,0.641676348713525,3.63761625107314,0.566845655368943,-0.592744415688880
0.766383072297013,-0.0571263153559066,0.640671323865386,2.99430090213542,0.791223904129581,-0.691818824031012
0.767362344005640,-0.0537632283091935,0.638687052104142,2.17483586214803,0.985862448854254,-0.834766209014168
0.768970380434374,-0.0542174785989534,0.637291989676321,2.12737296911453,1.12359305869067,-0.790490019980340
0.769402273399541,-0.0534744106418800,0.636694653897911,1.95506091622086,1.13472866189510,-0.832268731116986
0.768337407441395,-0.0597699381112239,0.637784663302419,1.60056109858079,1.10426605186437,-1.03325217985355
0.767422213601062,-0.0654046757932658,0.638139290834620,1.55616786369905,1.13006372509795,-1.12285939287701
0.766977769474711,-0.0691462991211850,0.640728533638653,1.10784493076581,1.02767723562207,-1.32339453664352
0.766319544165865,-0.0710682859330454,0.640358154808509,0.561139027138453,1.11132441804566,-1.42396473373021
0.764974702921650,-0.0728650082689993,0.640692878498372,0.718379338384504,1.35870617210730,-1.50761209481308
0.764737789473364,-0.0691700785870477,0.640522825168380,0.0140521181215195,1.49117385654452,-2.04410682465434
0.765826596227103,-0.0628264922358632,0.641841164893205,-1.05632607707884,1.72389014477788,-3.00951932540505
0.765560171224708,-0.0593754351251363,0.641879232405681,-2.24898347617856,2.11489914966573,-3.89011035337951
0.766446869711213,-0.0594677431454889,0.639736967941159,-2.67874851197172,2.43721663039539,-4.54299044583145
0.765718248780534,-0.0594993429810211,0.640627587278256,-3.23002812523884,2.57978541225906,-5.21324295862603
0.763920962888892,-0.0576787408744184,0.638317448496345,-3.90817408599278,2.42253519996340,-6.18880546474515
0.760345711650713,-0.0613892516814992,0.636454288628229,-3.40031208793666,2.02218803460211,-6.83084703438674
0.758993872439009,-0.0665009289743719,0.635017434725226,-2.74405135941652,1.62731101838812,-7.09229413599745
0.758964049096307,-0.0721934486784921,0.633723503647875,-2.04379005006672,1.05456936840063,-7.21050553490003
0.756663695657711,-0.0774346590449290,0.632042208939919,-1.25113033138241,0.267113274833013,-7.30434671631940
0.754044536353628,-0.0826744880078720,0.629435525613850,-0.940967835569618,-0.589174341299792,-7.14379513092450
0.752751335072488,-0.0856311675894629,0.628641675706394,-0.103930234260770,-1.27193854474199,-6.43292608656958
0.754481153962487,-0.0937570111010110,0.626273737160873,1.20554591741306,-1.44245358144616,-5.30618458330430
0.762837432139181,-0.0974350358575300,0.635051469968199,0.770789682778442,-1.05228965048958,-3.85226011340487
0.767864826232665,-0.0924742408073706,0.639540422345535,0.314438618616691,-0.241649061786631,-3.54337508256379
0.765016012265125,-0.0883264227152133,0.637876135338085,1.51674910962925,-0.108904525700947,-3.88982168395202
0.760444689324777,-0.0776482987234139,0.646021172421180,-0.0689411915661220,-0.309947529164478,-4.51120063481712
0.767722159607576,-0.0687336488214867,0.649340224429720,4.56147170918521,0.0546660357909128,-3.47452134516533
0.773560778402467,-0.0635400220848723,0.653577451856373,5.45081284809426,0.416388315291071,-3.26569371086510
0.777281028970285,-0.0398761181459055,0.658098031574616,3.31569389651062,0.734427186249044,-3.31631722374828
0.782079090479926,-0.0481612804743642,0.653764032789646,3.13944294251042,1.32035216587194,-2.45437814436099
0.784008450155866,-0.0518367653659127,0.643960851040728,1.81470436429328,1.67958704590476,-1.60197769144885
0.785022028542715,-0.0511954864468783,0.639050746657951,0.0685007679271310,2.13507879208467,-1.06130601406677
0.783881996022477,-0.0528882357546929,0.628152789012412,0.317279562009342,2.28670097045438,-0.867578311575428
0.781140536346305,-0.0579606062726662,0.612047626069341,3.26048626269080,2.23843634748303,0.0765480898124813
0.777464870603998,-0.0700006816056177,0.606482631449765,5.38821822665436,1.69065904822020,0.260273557462219
0.774139872378407,-0.0663845563392672,0.603574160424556,4.21117649211307,1.00981450132652,0.217812450418607
0.770224105574878,-0.0702217958980009,0.616703702100394,2.55281389214976,0.217937439467954,-0.127345592653911
0.762052997601120,-0.0658939035943795,0.630660808234362,0.810355477569092,-0.574826347470326,-0.514453551420753
0.755261169553476,-0.0636249101381820,0.638672958391443,0.760427423274207,-0.863563187373903,-0.780850059657409
0.754910829050312,-0.0623547432058269,0.647211831593994,0.653433769714086,-0.652430834957411,-0.743867435084276
0.757965163093324,-0.0620004840227908,0.654009632197212,0.471922890973040,-0.181876184749879,-0.612193762806527
0.760109825340303,-0.0618585328890344,0.659561963462602,0.136372668268520,0.482301545949955,-0.668706269218517
0.760894913075944,-0.0595703020532287,0.659399472515446,0.0713121422591073,1.31046053668531,-0.554718140934088
0.761508782163486,-0.0576817881236505,0.656069358685849,0.234545406307975,2.01594412145175,-0.418937162077890
0.762376425741288,-0.0570533499113603,0.651774287241774,0.137541526893193,2.30373223072194,-0.588854013143998
0.762636104251129,-0.0617746562227098,0.647859588991709,0.393532698946023,2.14265940711244,-0.747180974084155
0.763975284785597,-0.0652636155359738,0.643321691314006,0.131211740227720,1.73595419942433,-1.00701015011390
0.764533463080841,-0.0671019232100941,0.641800640674168,0.272896920827915,1.17299781752198,-1.19624664226557
0.765077146665363,-0.0678386120082159,0.639682346388080,0.379967581865912,0.957899738976273,-1.30466866058030
0.764300325310229,-0.0650508890357472,0.638925886812521,0.184204199744966,0.864965935320775,-1.66251781851593
0.764387732760331,-0.0622088940961053,0.639758654037952,0.0954777747994531,0.892498152960891,-2.27772795500141
0.766179072191806,-0.0610632190709305,0.640683152532124,-0.334504957120123,1.04073326137170,-2.88815693282449
0.767955856233631,-0.0597261596808828,0.640736487239424,-0.951709199908767,1.41377195580240,-3.44618348336623
0.769715096907415,-0.0581660457539930,0.640772599070785,-1.64006943770712,1.83853477482866,-4.08709122120833
0.769442531599009,-0.0561972511171769,0.640501798988011,-2.51465735396579,2.10449308789018,-4.78577645857076
0.766654353711049,-0.0560425574802393,0.637959500058009,-2.67870426723130,2.10887534887921,-5.35586391803356
0.762342184576977,-0.0576013336498068,0.635097825024374,-2.70652934454881,1.74469842148227,-6.05222860396449
0.758967251238881,-0.0600340937903884,0.632908629882232,-2.90296773571145,1.16048125339634,-6.69227473208020
0.757312359297460,-0.0656788837959301,0.633319107510490,-2.37455755433756,0.398325754010728,-6.96503038122024
0.756778881094925,-0.0738658002102572,0.633581968510917,-1.32869673459246,-0.228569634141093,-6.79625863293560
0.756635180835768,-0.0787044671194549,0.634067018285773,-0.662443493597085,-0.641279582962825,-6.40650026618155
0.755486264747518,-0.0820627183432649,0.635340729924626,0.0957984880193552,-1.04920312531647,-5.76180218819861
0.754543331742753,-0.0856836506659804,0.640161382288930,1.28424628414700,-1.36500743405412,-4.89202155054610
0.759365204684627,-0.0763933113074290,0.634511925597981,0.940126812348174,-0.982039284542428,-4.81031811615287
0.763910278945808,-0.0718623801689263,0.636713869231952,-2.67158038458027,-0.159353352775940,-5.22852836238984
0.764362041996168,-0.0761410598580380,0.640556000198832,-5.59914084177104,-0.0976289712697613,-5.86322798227711
0.753839054686229,-0.0635795140878064,0.632305341787077,-6.91248575660168,-0.0842122305430553,-6.40388368296536
0.755402502821789,-0.0643592275190204,0.633191839342548,-7.37357287371370,0.0484347189317256,-6.53935842721464
0.766431312112800,-0.0720964040788819,0.640643676304476,-6.69668242663149,0.387329274828813,-5.87103971164481
0.778496737197029,-0.0748392954078328,0.642429584836894,-4.45567017911025,1.12588557468827,-4.47631590925409
0.787348023493802,-0.0751259698522761,0.639746649429942,-2.21543871066659,2.09950474935560,-2.69312302860115
0.790547972178120,-0.0731456097367368,0.636737056237690,-1.29088908078842,2.70529682353839,-1.21136484556769
0.787392874797336,-0.0717186026568581,0.630754957275187,-0.0867206093565733,2.92939171217049,-0.111882246566944
0.783116529847175,-0.0762587784644821,0.623695461336894,3.00961795623600,3.66416808442339,0.803563683339569
0.784131355983999,-0.0824457490852336,0.609725688515265,4.90559668409639,4.38358008938604,1.26061109611618
0.771632779081335,-0.0630293720730955,0.608858395068073,5.46721935813167,4.03741362849302,1.54342431864287
0.761186846223015,-0.0626114972197097,0.606546192814256,5.12033454922695,3.05272811775532,0.655072905792924
0.754855115321438,-0.0635035965304675,0.617453417756140,4.61357699118163,1.55663964596009,-0.339971334879500
0.752025266763369,-0.0616625817133567,0.622221317909042,4.52970316053254,0.312858364470856,-1.07862822989369
0.754412977265824,-0.0568641521419058,0.626747107613082,4.64534280277791,-0.476664024644465,-1.47071894596922
0.758322374115326,-0.0541444996922632,0.633894569279772,4.11733703328764,-0.663013715269249,-1.76442118743523
0.760145715429969,-0.0520598444902277,0.638545826847360,3.53730414456895,-0.611775370171464,-2.00177003856990
0.760483098149882,-0.0514781056122666,0.639865680953704,3.26499867305122,-0.451875476184611,-2.14023272415073
0.762232780444803,-0.0513254793954184,0.642402246226993,2.27336324922748,-0.0931256198767023,-2.28228934403768
0.763897668117305,-0.0524878631365400,0.643164288621700,1.96699394956652,0.163259287262925,-2.21957348951773
0.765210891638975,-0.0545322022892166,0.642661827981235,1.80736755263199,0.364661071927770,-2.08303299606179
0.766119824924159,-0.0547786141639116,0.641001991444848,1.53418057706666,0.705814411510828,-1.91500051707413
0.765768976169789,-0.0603543998157986,0.638177371158593,1.09674364479849,0.722183317822844,-1.94860730595106
0.765945911597526,-0.0667442083715186,0.636904226845975,0.857457160750476,0.747932196978282,-1.89980547937455
0.766118346841528,-0.0722333122384766,0.638369053808231,0.535143759949941,0.997902591286557,-1.72342387963422
0.765951652974109,-0.0735915859433042,0.639143127992013,0.0775790083585226,1.28500079160448,-1.81782686742486
0.765088336093837,-0.0729528876871711,0.638016470081147,-0.374971243068699,1.40863668777788,-2.10918598508908
0.764799611261403,-0.0718488815706191,0.636550171115404,-0.917268218903698,1.51252009538494,-2.69989418309184
0.765157203276687,-0.0689610339049436,0.635178295238394,-1.53440717981349,1.73796004080949,-3.29484287061379
0.765831222157152,-0.0638551083810396,0.637233539281683,-2.34053388155323,1.77661430631767,-4.04937061067371
0.765533399368123,-0.0610753373788065,0.634409070024381,-2.89773626705525,1.69587112920542,-4.88412494068392
0.764228026676044,-0.0594380891440366,0.632924234497982,-3.43472324217931,1.47037644334629,-5.72933080801336
0.763344486579966,-0.0602410493251827,0.633619630476273,-3.51350737161158,1.25207996115170,-6.43651121028771
0.762884780187695,-0.0641731136324554,0.634483292360653,-3.38402492687185,0.939129136991867,-6.96167364900519
0.762211579353421,-0.0693364929614794,0.635267896375199,-3.18187099916229,0.650884093891038,-7.30879920566128
0.760677445757072,-0.0756492535164088,0.636687015855633,-2.97167516464234,0.464177495089859,-7.26943029734869
0.758147336413532,-0.0815200460672955,0.642081324807520,-2.27086340588067,0.270975092939593,-6.21810720781520
0.755388223584813,-0.0864062506035407,0.643248862621755,-0.273965156382179,-0.394623817390026,-4.81482332826316
0.755301316304603,-0.0963245531437359,0.635097963677249,1.71005385283229,-0.918040440548404,-4.00873445096726
0.761129298138320,-0.100518402312064,0.629198485945590,3.42570934869733,-0.266020869636173,-2.68611649498647
0.764487825368676,-0.0988226134869510,0.638788108098215,0.938918953462810,1.10642677735294,-2.50726946203202
0.762634927695257,-0.101976962813572,0.647057913581381,1.05544318165480,1.81228986269030,-2.54433877029782
0.756756488797218,-0.0887503309492407,0.633038053523220,1.48930624516248,2.25340174152585,-2.92914339195407
0.753556748708562,-0.0609229836534121,0.631663228438035,-1.82109423602332,1.46342808732456,-4.65420200270972
0.759106863995589,-0.0463347870250455,0.628340003611135,-3.91789504401452,0.827568930297719,-6.08729768690130
0.776767899641813,-0.0555520576378461,0.637851530309964,-2.88111904156085,1.49172276123175,-4.97127088944940
0.788822439692530,-0.0634346083293380,0.644443698686586,-3.29098531870414,2.25235665245304,-3.31045954135210
0.789701153340542,-0.0584994682787804,0.636576178799772,-3.98846588263116,3.10195273718829,-2.23608273445109
0.784445575443401,-0.0642762779397237,0.617219318644177,-2.27644109846762,3.12138029077168,-1.87343629323816
0.780851188941639,-0.0743573166126320,0.614255498926644,0.492421260242407,2.54918449356945,-1.36180912287532
0.764599154271029,-0.0662147193077363,0.609765869195048,2.03510357885903,1.19080748084567,-1.07489834446269
0.755351888963048,-0.0700597660539154,0.608452779347937,3.24663591210562,-0.154120649804855,-0.948276225469307
0.756521717707941,-0.0762784307896771,0.620809443302499,3.56863941402934,-0.533557887151238,-0.945680738855639
0.758998453278244,-0.0761126692049414,0.635433304477050,2.42794667649898,-0.535300753552373,-1.00465793313115
0.758712762422053,-0.0726127998549855,0.644707997649135,2.13241549192194,-0.345972137812318,-0.935184268721887
0.758829100510370,-0.0728072228206962,0.647657054760517,2.08902872090627,0.130019718909323,-0.895465933830799
0.760667929302000,-0.0685938730330889,0.648774328138809,1.51863201086788,0.740998094347073,-0.800861065909474
0.763194655680989,-0.0682888265928358,0.650673510914381,1.82680467937532,1.37635690857303,-0.458390992085519
0.764147961501862,-0.0678680977020733,0.648784447979766,1.59785951419049,1.90349057542378,-0.218163114724110
0.764992193217398,-0.0664135360109443,0.647671716344826,1.37796612993294,2.41316310183250,-0.221714140748478
0.764910795298415,-0.0641685807677940,0.647539270621117,1.18996002377373,2.68644658997538,-0.175478473361117
0.765078506674875,-0.0640738879640306,0.647688552299575,0.523682717126698,2.77225160708963,-0.210979139567911
0.763502186313335,-0.0634467524622256,0.646278885912922,0.392203335442677,2.84574930975599,-0.303116104706428
0.759748009029829,-0.0681571146480546,0.642664350475302,0.546695603319276,1.98870128081548,-0.984835875524275
0.760249872162196,-0.0730021313859169,0.643863680711658,0.721560101632789,1.51674437570474,-1.41040154005959
0.761355863731550,-0.0775693364141801,0.644172791794019,0.862807667448868,1.40261676843061,-1.60260734370732
0.763068090335096,-0.0811837715114233,0.645172827872226,0.559553512206900,1.25340044950248,-1.79776383691433
0.763399217386914,-0.0814162592304041,0.645149086780341,0.319829437251103,1.36028839769498,-1.84931863447916
0.761293420059121,-0.0795643855927211,0.645887452909717,-0.0719430617643542,1.64519970039079,-1.92233442325009
0.758809368194703,-0.0765860910655193,0.645255332375949,-0.965170032600145,1.89606903558541,-2.65373049365155
0.758919993538774,-0.0695009508233319,0.647466920162469,-2.64889554781685,2.09828281810154,-3.78165635672442
0.759252418579752,-0.0680533591802487,0.648635925542799,-3.95128161061218,2.37379719297175,-4.78288333563920
0.758926456190555,-0.0689124021359418,0.645883082662819,-4.85728308458749,2.56543402720717,-5.57590133496699
0.757681989344386,-0.0697309251733042,0.645353421957962,-4.95810731448315,2.45231852897543,-6.29433915983221
0.754892304738880,-0.0706443493760303,0.644224419996699,-4.75326706955319,2.08501508059899,-6.75852418287803
0.752371254276658,-0.0760913882578213,0.641664072611967,-3.49365081088459,1.52901750045476,-6.82442887257914
0.751195181539748,-0.0811979895661192,0.642471148328349,-2.37436250671136,0.909112990715901,-6.68215903970393
0.750106347525351,-0.0862253776954137,0.641843630296019,-1.50039626204661,0.249947679567861,-6.60376426864782
0.748101607956621,-0.0893122204499826,0.640254950983797,-1.00508779848365,-0.414895145201860,-6.35635891739583
0.746992308726473,-0.0944155878214814,0.641000704382276,-0.168598749386427,-0.985217652468119,-5.44514178528490
0.747998840009438,-0.0989001478059283,0.645297035352561,1.51978912221606,-1.72131171046321,-4.35121504692607
0.747252956179474,-0.0986876425817018,0.631830841967507,1.29573100517441,-1.32686309382510,-4.30310361715076
0.751427959540983,-0.0881520128450773,0.632808258074537,-1.82288803364346,-1.10147829634375,-5.47717983242592
0.762248509952197,-0.0849451026273948,0.646177376619270,-3.44566060448489,-1.66227651169544,-6.62548611427699
0.761247386661903,-0.0806782934872705,0.651501591324493,-4.06803871743959,-1.36575447482558,-6.80331916184239
0.760635913019467,-0.0719103819699912,0.656546903785813,-4.61433471431813,-0.478319388716766,-6.71882795700730
0.767977917289006,-0.0722473074153776,0.665094162505329,-3.96221752476627,0.347663953702582,-6.14648814014211
0.778804714520980,-0.0757786397040011,0.659827858552552,-2.25444181300612,1.30932204786936,-4.72886071294790
0.783038814329481,-0.0756571600785822,0.646820161834378,-1.62613152828570,1.83209238176946,-3.61646163245993
0.781844301205082,-0.0747641958542528,0.637597418941890,-1.31091417830326,2.28467779186485,-2.46323184622894
0.782503002503753,-0.0772969330063830,0.626203889135283,-0.227889618107427,2.34041178757932,-1.35762150637305
0.779753258023089,-0.0710940099445324,0.602225868443594,1.29276147143717,2.11642024101729,-0.754102914678584
0.766026109553429,-0.0664147781522517,0.605063456149987,2.94262837026802,1.42981538525241,-0.259840827197681
0.763620808023183,-0.0783587290328687,0.608752704357271,3.11850413227335,0.676242211507985,-0.168002433892153
0.765238467118795,-0.0821416390438351,0.618433519712928,2.95871848760404,0.227023689431506,-0.305771997309368
0.764560131952988,-0.0816191033037870,0.626079174102889,2.72433122204065,0.168690318873351,-0.285958418106256
0.762573247772583,-0.0804938596590980,0.635753701555394,2.77128578306477,0.256848366781904,-0.200158496988927
0.759311843070528,-0.0747901149760313,0.644886143806581,2.54566997232390,0.326850329697797,-0.426917158365407
0.757225251719242,-0.0697828221247862,0.646000742574743,2.06591714611024,0.645368493268630,-0.777022783200112
0.758284228365257,-0.0694867062835337,0.647505498481859,1.75097901991501,1.00094634778732,-0.910162114291789
0.760621210242902,-0.0683005224378197,0.650275645299100,1.21330542556763,1.36914039923991,-1.00250758993513
0.761592870541261,-0.0666849544866184,0.648843761075973,0.901298222272698,1.69320929566414,-1.02494583905209
0.761931758972162,-0.0659650382268858,0.646147435290849,0.874356168900152,1.94267606934776,-1.06647754169684
0.762142067408121,-0.0726681476035326,0.647457282031942,0.748752302160094,1.82952968670863,-1.25497402981572
0.761520128760844,-0.0775708219911962,0.647375805459249,0.631661321952714,1.80638264407890,-1.57144767871760
0.760157856208878,-0.0784789110737861,0.648221627732124,0.187845632055748,1.92886282634674,-1.86479105010352
0.759369406120358,-0.0793495180869421,0.648157746373344,0.0208271640214152,2.31387898780804,-2.26303026414899
0.760298670493667,-0.0766814914352728,0.647865024099029,-0.604277980791987,2.37240698537076,-2.87602285672987
0.760296304762362,-0.0743445790756519,0.646083316209666,-1.02187390533843,2.38546328801443,-3.56320486369892
0.759039264287584,-0.0708785957564021,0.644685467442901,-1.35244185989925,2.46615456712063,-4.28886598308371
0.757758741362494,-0.0709033979594599,0.643655508170589,-1.65558612074718,2.34684227518824,-5.04104384341519
0.757381601008198,-0.0723641980574426,0.641893790539012,-1.31223483749170,2.14557568000655,-5.68640025935873
0.757399396814684,-0.0760084610838192,0.641575370799172,-1.41288730590444,1.78711749657436,-6.15222254084821
0.756135781796069,-0.0814191781477213,0.640015149302212,-1.07670310965932,1.37832469414746,-6.49168133038351
0.753601992881456,-0.0856432538193099,0.640346431625561,-1.23514598689551,0.894757329270314,-6.66525313134657
0.751116714473821,-0.0892285325257276,0.641388048486463,-2.02866797709914,0.263858684610246,-6.48058968492762
0.750188955782665,-0.0936168976320541,0.640209939290239,-3.55772915019211,-0.357826709356213,-6.25537712146005
0.750728376696871,-0.0973530867816723,0.639156270932462,-3.64194736106412,-0.857333964209597,-5.96335822574551
0.751659250952953,-0.102210894384865,0.637121535691025,-3.28889913163414,-1.39696843633825,-5.45577803079699
0.753816922592370,-0.103238720430108,0.633847815543080,-2.99719050805552,-1.45992180699842,-5.02622733857275
0.758329551997932,-0.101897023428418,0.630626567475304,-2.64745423119542,-0.657367996774479,-4.46218952816378
0.763341413874799,-0.0964346839575236,0.634840801519320,-5.72170104895774,0.213367193104744,-4.75934628824581
0.760285383338112,-0.0933649528178702,0.642134581624042,-6.28208311578699,0.566028881543328,-5.04710592891988
0.749369897026763,-0.0938876066234032,0.631377511451698,-3.98755509344541,0.780307185403557,-4.98252630715286
0.755078002298445,-0.0956137298130839,0.638361360306797,-3.65855165014448,1.05099110636971,-4.75226404622562
0.764113695056226,-0.0924371968919763,0.658476139820663,-3.33061023780749,2.00125992103701,-4.37316223008785
0.776359855331984,-0.0989354432876657,0.671334334623566,-1.95573296694751,3.30380215581893,-2.85966953755317
0.782479246482210,-0.103432123915287,0.670742130604980,-2.41766561581961,4.62669256766821,-1.14954212828967
0.780490024076715,-0.0940455989279792,0.660645743204150,-3.24974483576513,6.00006080746637,0.166548025522067
0.777442953111283,-0.0916858743608228,0.643525141516259,-0.511453526023226,6.89493514111597,1.14871041828131
0.767402072597202,-0.0859608370670511,0.633556792187464,5.38719706537443,5.86200862406747,1.84545914552184
0.755255478770320,-0.0768706998035643,0.618045631596187,7.90293310908523,4.67266749309249,2.34455636625109
0.751132163213483,-0.0794209239590808,0.623590775651065,8.01822462865836,3.70178492430373,1.58854119606978
0.748893841678522,-0.0790544104109128,0.632173816001933,7.32243742774092,2.50107396868947,0.672704270406612
0.746565593846632,-0.0833724832152532,0.639425869703818,7.26293865063764,1.53846659351522,0.353346809966315
0.745153075318281,-0.0823524326038560,0.643452279134473,6.44893516962841,0.916239943713879,0.0217411009850426
0.744507032278998,-0.0797659942177071,0.647273316805754,5.35525098449060,0.418254475725136,-0.378388164864891
0.745201938463524,-0.0816120696281049,0.649675462616723,4.64791705937732,0.146783738905503,-0.560213090870992
0.746537911884108,-0.0790588681357389,0.651864845908881,3.76270830099703,-0.00508505401997772,-0.630006341170231
0.747892718493299,-0.0767458056256718,0.653387720305625,3.04268353029261,0.118498216001799,-0.808084150462925
0.750284725568533,-0.0747160373744093,0.653007547218764,2.21326899034827,0.269201182962033,-0.943354470101357
0.752289490670546,-0.0748032470040035,0.651334335093923,1.63683752356095,0.451956802430212,-1.10191328262899
0.753541248170098,-0.0751424113565937,0.651220158910927,1.16713415052162,0.585203585233798,-1.15690436132953
0.757461038314321,-0.0793352241848018,0.648042206455277,0.715644518351777,0.682439294870002,-1.39111233312834
0.761097346646349,-0.0820774482347804,0.647075444506698,0.301131443592144,0.953551093998462,-1.54439076543317
0.763294651200914,-0.0830973488413525,0.646979977568550,-0.187805638438738,1.31969128254070,-1.72862261400734
0.764377823457755,-0.0794103158981926,0.647327514408586,-1.08960444885225,1.87801801751943,-2.15941933565287
0.763454209240671,-0.0750889621971530,0.646316732038457,-1.92087701644369,2.53700412708846,-2.80739301038634
0.763914607178250,-0.0704067750643654,0.646402526094875,-2.90070175442531,3.22101819883814,-3.58053013796296
0.763414367809500,-0.0677270633159545,0.646547493083051,-4.02377439975755,3.50333694374113,-4.54546230954983
0.761006661680140,-0.0694661405039971,0.642803133378186,-4.29862424939093,3.48754901831144,-5.51216323927379
0.758867172452257,-0.0714608378276873,0.640278825592867,-3.97031939018116,3.14991690988661,-6.36996684867037
0.756258178951015,-0.0726332417179089,0.637863818043147,-3.62592804745037,2.59661277378678,-7.01866864883730
0.756386233844541,-0.0773189700918697,0.635925078316527,-2.92674172549926,1.90264988367581,-7.42025532747159
0.757751518068547,-0.0843864742173327,0.635976615188977,-2.03067139770201,1.13735412744454,-7.38000033401004
0.757153709311963,-0.0903249409082403,0.635804679491713,-1.19725911815074,0.515862540005586,-6.99112107412322
0.754421014356306,-0.0949746715614418,0.634174108169222,-0.311607491738658,-0.0922804349820187,-6.38225002396808
0.753384190627564,-0.0996463881663738,0.634258341167623,0.436647148373847,-0.796207946488628,-5.81641031877740
0.752188809922383,-0.0995627326504378,0.635871808354005,1.29686861796676,-1.76591668646941,-5.11701532954019
0.752637980162805,-0.100577153167206,0.632515133810377,3.75001035277968,-2.34875270347989,-4.38519078881902
0.761289615055594,-0.0945986540534038,0.627771772400946,4.35899266577711,-1.54593900825425,-3.75480743152926
0.764340391726880,-0.0827367384855646,0.632865664029537,1.36436707557709,-1.48951958113895,-4.94557197645058
0.758761377888104,-0.0751105434071080,0.633402612694921,0.532385799923233,-1.50129312886605,-6.12798510893617
0.753671460512763,-0.0827070515996987,0.625403424660685,3.03307447497919,-1.27055805228671,-5.97708793974408
0.751457587829954,-0.0635082376169120,0.631429282596507,-0.939189173822287,-1.58229647560608,-7.58171073307408
0.766731404041119,-0.0634646633885009,0.642474799949742,-2.36470674565905,-0.694017621691604,-7.62706608580836
0.789421865526756,-0.0819847446145424,0.651675913987336,-1.05614206713114,0.999882928586318,-5.39046013906943
0.801022397618161,-0.0844162706961891,0.654528200450774,-0.985533651393190,2.83738420563668,-3.01963170671390
0.796942930202368,-0.0699454202732169,0.643045395046903,-2.08989075267065,3.91243084044073,-1.28957997208411
0.792057876253333,-0.0581156124854954,0.625888366550566,-1.91439018681923,4.52218628899444,-0.241912508059489
0.784324731332457,-0.0588524237604334,0.603940684702875,0.565346919246681,4.67545194923712,0.0861030139538590
0.774524216259791,-0.0545098714201089,0.605559806843166,1.40204222689270,3.84635866761567,0.163236102403218
0.766955718484600,-0.0539393685619948,0.608327041166571,1.07773756013345,2.42069808652697,-0.686234339624056
0.761034131159667,-0.0606092940181577,0.610208368095288,1.62226276624153,1.01644624009885,-1.02615029151133
0.759225010731886,-0.0693914935695281,0.621658917758167,2.61670031970608,0.229461777321849,-0.712506100435003
0.757384178520579,-0.0723934752177456,0.629777195980887,2.95000413984546,-0.202518745920003,-0.746173341203878
0.756582362198110,-0.0710381221141429,0.638765300419429,2.65735692937926,-0.340475352902577,-0.908195343783364
0.758781800732517,-0.0722467829156007,0.645275314596333,2.55326141892237,0.0287522162787214,-0.691788396322471
0.760962385865108,-0.0716865931000641,0.646697400046675,2.31032940887688,0.678799317904056,-0.344710055709761
0.762670732540830,-0.0696496226787311,0.648648961291504,1.50847965885981,1.24317862842175,-0.346758077570655
0.762920211314956,-0.0661004830986731,0.648443226862420,0.801497147153065,1.65666913916303,-0.410853021382229
0.763121209713264,-0.0657970823027012,0.646586609469606,0.933075933276190,1.88448258055204,-0.271158925905843
0.764813255401832,-0.0643202086188833,0.644111215311541,0.886305540675859,1.88768449732722,-0.150556718877423
0.765608969940026,-0.0612173633907149,0.641361474374451,0.704459288441589,1.81441228921908,-0.260817496496817
0.766739545125617,-0.0723437794049819,0.638191681147729,-3.35700191957869,21.3825302552204,-7.87030853940815
0.767916302709745,-0.0841779368587081,0.635109103577084,-2.11074504071315,18.0268542167880,-6.79377841962591
0.769404062675896,-0.0903370197659699,0.632782391118278,-1.78085446076563,13.7843491288641,-5.37470384831738
0.768890677042823,-0.0954154423655547,0.630482813924262,-1.03467959850029,10.5827727837164,-4.29048901000868
0.767287461031293,-0.0998332985998460,0.627616651678373,-0.157860512735718,8.16888579325138,-3.45726622901431
0.766469364888224,-0.101347778807173,0.627008800729683,-0.240804660634391,6.21408118722585,-2.92649331388820
0.766560558237090,-0.102697653576003,0.625407413213742,-0.0919423154662378,4.90150546379016,-2.55425982477639
0.765983540779270,-0.105784941717910,0.623707348085672,0.267441325417214,3.88081463611350,-2.26927656694719
0.765498050736338,-0.105043066426162,0.624728620577317,0.154516658360504,2.95169054479824,-2.13408067084050
0.765196609404863,-0.105923537398532,0.623860107417509,0.723969997138343,2.26998267275479,-2.03527565199185
0.764032186230443,-0.106114586750454,0.622589743514335,1.11581509196559,1.63123961078139,-1.96315010935978
0.763800299331429,-0.104250126642837,0.623854786214454,1.03619589691822,1.11387256566225,-2.01428785394670
0.766007795694702,-0.106250495758392,0.623394507987412,1.49007458887704,0.990605762210397,-1.94338303571775
0.769400053430024,-0.107274837870842,0.625888237794736,1.16831589789133,0.903834915643917,-1.73996729255490
0.770985381792548,-0.108335087077834,0.627991237105096,1.50568310739729,0.937191803560740,-1.37619266262264
0.769322906029360,-0.107715606602536,0.626408398595456,2.16494413622976,0.956380228608541,-1.16329093435685
0.766699677438426,-0.103325081219038,0.624525876522830,1.86458176900077,0.836438155698268,-1.37639408091249
0.764822364301238,-0.100557897939559,0.622900977707262,2.53829210225993,0.572422341604947,-1.71703133771136
0.768323373850077,-0.0983444594951480,0.621452655006390,2.81536245974829,0.510340790010239,-1.73211771616129
0.772730913826207,-0.100152483268455,0.619953838371075,2.56617344008858,0.507743311565520,-1.51221694465282
0.773818022925279,-0.102289260569036,0.624395593044976,2.60602530197768,0.339623748692479,-1.38052219147252
0.770480747753213,-0.102743482082840,0.625519803241327,2.76106248299980,0.378208264458757,-1.16868048712751
0.769887603959880,-0.104804551610862,0.626840702173720,2.57547219567164,0.689359116900165,-0.935781034645541
0.769045450041017,-0.105888260098701,0.627261285982815,2.32860486891012,1.01146499873243,-0.617128442258544
0.769161369168345,-0.110139340044504,0.627573226160252,2.33743478317331,1.24864054187923,-0.199199544760673
0.768963070191954,-0.115724941191091,0.625248901809715,3.00769551952233,1.36264801900896,0.428285231550402
0.768136977106125,-0.120524708750028,0.626799505993968,3.91907812657637,1.44735893320728,1.25207427087560
0.766575540774959,-0.120538581040946,0.627662398431139,4.68576723451245,1.48709662639733,2.15675553112652
0.766408444181160,-0.123761308194003,0.626662511702984,6.46377306095641,1.49906439013663,3.14388879190072
0.766146435354958,-0.124238366886611,0.624107675166364,7.59418358216307,0.972372273976052,4.22319170280742
0.764813275199013,-0.119650263463237,0.623069569499845,8.34317860410361,0.341693220476182,4.80958906255201
0.762063973998527,-0.112186943688658,0.619604771981143,9.01565609720268,-0.298900881791952,4.60958353969633
0.758930076194237,-0.101045455258800,0.619120238344246,9.23735506058702,-1.30336171836779,3.48162226652914
0.758963923921755,-0.0915134115134485,0.617784014846420,10.0023403037841,-2.16428215839995,2.34521586575485
0.762010532970201,-0.0817450731654537,0.612139721499424,9.83521860269529,-2.24202718955501,0.973014977411917
0.771600235789699,-0.0748687484363392,0.616398088436318,7.15740596840384,-1.24297850446279,-0.216188427100659
0.777139547279917,-0.0705284848076707,0.626220521107083,3.67984425902224,-0.297057660786520,-2.21481551081492
0.770470251357926,-0.0675472608937044,0.637088155072192,1.50834753053732,0.363104078553207,-4.16462470776272
0.762691406367408,-0.0605819770117166,0.646992492236676,0.834865247169023,0.938264579915532,-4.90292365882318
0.766101839738261,-0.0676039329178084,0.656673992653823,1.85772760464943,1.50822001837075,-4.75802649705961
0.769084173585924,-0.0744142698979787,0.659058262809621,4.00105145580490,1.81319844354615,-4.48753336913830
0.778611405240142,-0.0787815644113441,0.656471838260137,6.30546107224429,2.66960063677901,-2.89485667159166
0.788318165506443,-0.0857077601496286,0.650115118492088,7.01612400945583,3.89174503262396,-0.962835492852717
0.790098087716576,-0.0855568429656363,0.643603998807380,5.51775607084108,5.31785076898010,0.249925261255069
0.784989995160842,-0.0796428992895006,0.613733334798627,5.37146505837771,5.57444930789903,0.492642656585001
0.764890459831335,-0.0661984138573408,0.607644190261651,5.42613917033677,5.15699218079864,0.805693872257429
0.758971977992971,-0.0709663782214232,0.612666261470147,5.14119725432901,4.19881431290298,0.580754987597420
0.760216967277235,-0.0772695156653922,0.617693735767068,5.86441668348183,3.34519049588642,1.03839719914225
0.761266543352077,-0.0779375492027501,0.622448928482051,6.02577710025781,2.79570180494107,1.71627289771504
0.761334260837707,-0.0788036103479004,0.634279287614843,5.77332009931631,2.60215951531242,2.05266993306576
0.757752329742319,-0.0764462063019802,0.642503001057640,4.79593552480752,2.20737923911623,1.72639071573284
0.753825237007470,-0.0681344849173482,0.640034769163204,3.87726660140255,2.01250403886063,1.12715246701858
0.752905424859398,-0.0649706315999064,0.640116788474176,3.15659722668499,1.96114194502948,0.549912159529459
0.756108916866469,-0.0646138624779197,0.641374270653404,2.18824627177921,1.84378831829083,0.129453404962593
0.757231907093906,-0.0644300590990175,0.641758722673479,1.28159454942350,1.67602355363353,-0.251460372417785
0.756920732092174,-0.0629383351628530,0.640442524768787,0.807448896050463,1.52313161951903,-0.714780055558885
0.759192360930936,-0.0678278653896093,0.639381796566480,0.569107198210198,1.07492242834421,-1.20489319760419
0.759675608205100,-0.0734784143855280,0.637410364239060,0.754328763971463,0.751201646605945,-1.39247465908739
0.759376654656270,-0.0771575524164412,0.636148431478004,1.10333662269589,0.544927474363050,-1.47530325794374
0.759330605625225,-0.0785516786402034,0.635601309144347,1.18670693250097,0.286186368529884,-1.75273243390159
0.759848634080242,-0.0797962669884592,0.636664188314496,1.23041914443725,0.168067548782540,-1.90278165823302
0.761290911086979,-0.0811428587310880,0.638654503130500,0.889967636671849,0.303903219528051,-1.85138201768450
0.762687516073881,-0.0832378437718459,0.639635073759133,1.19728173835331,0.403008067942054,-1.76071274419015
0.762613287155133,-0.0851156222893892,0.640837712191371,1.23252881644159,0.497574096567605,-1.57061782894515
0.762449758400595,-0.0861647829804786,0.641407946920162,1.36536732259881,0.843090522372685,-1.28605524848127
0.761547744396153,-0.0851176122779036,0.641971600901683,1.28770950314163,1.08584923066396,-1.07861245871176
0.761939077922516,-0.0877335752062939,0.643584982933756,1.74729376791568,1.32138621139565,-0.867933251908327
0.762745183819728,-0.0904559396098286,0.643517222497959,2.03797789487994,1.55101736736523,-0.478444982656326
0.762851141538449,-0.0932956374640395,0.643877663254158,1.97138333969102,1.88005413982336,0.0221265599395275
0.761455676034148,-0.0961658549443292,0.642875566976836,1.80595114678340,2.12893090391025,0.587003857878250
0.759102668891263,-0.0983404335070193,0.639465187140297,1.86626204423089,2.17801450279697,1.03405561219727
0.758498469521744,-0.0985702785625148,0.637301991314551,1.89132052516578,1.90406899523687,1.40828825048680
0.758406359549921,-0.0997895592927844,0.636705488297149,2.33024408757754,1.62126507550747,1.91601260744900
0.758017818812290,-0.100309500019987,0.636012162511797,2.52215839978390,1.36209876332738,2.59171874502831
0.757524134371428,-0.0989901152186258,0.635836546783212,3.04226243209221,1.03424054098346,2.95972403475548
0.756608387790937,-0.0972635350636192,0.637403524191426,3.79343776215226,0.744020415584877,3.19355657787693
0.755528291466510,-0.0931965688940370,0.638301160595151,3.91182856085521,0.512286078512497,3.46452187895921
0.754877037489403,-0.0917877236520649,0.638100639177068,4.74842238411440,0.155843771451383,3.47958121510919
0.755424462032644,-0.0906185525178942,0.637571849627334,5.14492389493408,-0.486263134093905,3.23509148580957
0.754917236804949,-0.0897511468097724,0.640353237382981,5.53150512600092,-1.06722505761822,3.14970930223370
0.753743963729624,-0.0898883950348863,0.638722654328775,6.75738432565578,-1.51729442487830,2.91879168640752
0.753935279074634,-0.0872758015512011,0.636869895731996,7.65009158862255,-2.00404985276580,2.51101305195461
0.756613508844596,-0.0845039907789556,0.639131821732062,8.74619843556641,-2.57527907091818,2.18206099364163
0.762146033166014,-0.0824538256443647,0.627313036906613,9.07915755986027,-2.45782291911093,1.43477162025732
0.767788276979173,-0.0794115944011118,0.627787471372483,8.23025479195629,-1.70339750446965,0.668151735596020
0.765596455849057,-0.0693789348270525,0.631002748274812,4.82546811957829,-1.18969417998208,-1.13659838658713
0.759863593971510,-0.0609787984379717,0.636367011508521,2.26954284429428,-1.24840574198663,-3.28252609324140
0.761202217238850,-0.0647722056345570,0.641830428851912,0.441497107644853,-1.25307839770373,-4.66473067394881
0.766055692960687,-0.0600444523262176,0.639561573281208,-2.58648903678552,-1.17112985780712,-5.93681272903382
0.770044947355782,-0.0650452223763440,0.642860110014905,-5.71452103028540,-0.947115035810605,-6.57281129870731
0.782380082569236,-0.0784441840481455,0.642557405700136,-6.12490502439412,-0.0852189968891967,-5.59931227615211
0.786982636448782,-0.0939472730804149,0.636544959638895,-4.08003051089594,0.769339798736081,-4.05564963495549
0.782125642642852,-0.0914096984927530,0.631221460344541,-2.32350123930816,1.48230050655216,-2.83828813229996
0.781914454662970,-0.0907249145825748,0.634484544658479,-1.40797992675315,2.10053103591945,-1.72575972968767
0.781321958070728,-0.0844058198325040,0.635681512901221,-0.672659995202390,2.62083328231742,-1.30650138259112
0.781914294773752,-0.0790932842276147,0.628126109990785,2.88032831651724,2.97783046011643,-0.632074448471519
0.775028920156461,-0.0816756884651022,0.625568017564543,5.71578400836780,3.18421856508309,0.571562309858849
0.766660087249915,-0.0778548510406109,0.624946333990480,5.81540718076969,2.88466393263345,0.898492948712121
0.763304457836609,-0.0771074938944644,0.622242866657003,5.19447572801887,2.19848633986025,0.266536997175991
0.763267566335315,-0.0775378938900253,0.620519637846988,5.19823931626327,1.87331358673449,-0.0297124208333417
0.764491137272319,-0.0818080020833868,0.625163646084291,5.07618575795355,1.77215643868717,0.156036578146000
0.764084398655621,-0.0811055133670420,0.630864651638332,3.87752793003760,1.53403666696109,0.0130493318339684
0.761936132194345,-0.0797953790061172,0.635672182896516,3.02516787394107,1.52913788769313,-0.237769717444106
0.761726548651155,-0.0779283883087161,0.642332268297123,2.12363834575099,1.92050564513298,-0.376171792591818
0.761353215977592,-0.0782554587046510,0.644599533226360,1.13379289783164,2.23081154122240,-0.502369503726389
0.761177357110494,-0.0786038108931703,0.640296440724253,1.08239143582869,1.90379160129743,-0.782313243423122
0.761889723714275,-0.0798187249104322,0.639706067322040,0.852530747498478,1.52822756515304,-1.04247646378447
0.761959531787734,-0.0792580330230149,0.638580501007564,0.962046654953907,1.18113295353992,-1.20828853798193
0.762380997219270,-0.0784667713818187,0.638579925672484,1.15124507734380,0.876031975250242,-1.39361415340127
0.762369451825311,-0.0763076131035312,0.639433325227349,1.05563424354609,0.640765437953748,-1.60943198990980
0.762744637828621,-0.0768294571584402,0.639666701963612,1.34795024026130,0.564165153651920,-1.67863437799116
0.762285098001434,-0.0756984125088408,0.640807116813444,1.16756139023583,0.458467189286089,-1.75737432763316
0.762529444639633,-0.0779273012156743,0.642626830979426,1.22632984350615,0.569078427151491,-1.70647316690459
0.762825079712446,-0.0811060610630695,0.644409877972185,1.14742024072911,0.905793167739988,-1.33973513268049
0.762815028796470,-0.0848871692312373,0.644925663196086,1.29262044181708,1.31798447478789,-0.905683906209434
0.763616165903098,-0.0885646267788081,0.645282876087116,1.55971665875060,1.70959217128983,-0.275742471781007
0.762263408071059,-0.0939521964750202,0.646550939313540,1.94126225058473,2.27134348897053,0.541495904669114
0.761082359893229,-0.0963145527755102,0.646924087117407,2.09013520436649,2.73857932412782,1.43314897002958
0.760082351981177,-0.0977035089962571,0.645419757315578,2.32667343909902,3.09272587888463,2.27651826690834
0.757735916921097,-0.0989805852421261,0.645509399030257,2.77154658331632,3.21908058689275,3.14851644246655
0.756692781857471,-0.0983362041509652,0.643972144844411,3.87215324281855,3.05346482811995,3.94401686396670
0.755345563324040,-0.0982426849071011,0.640909159876477,4.53804427160665,2.52134087392105,4.43673624685178
0.751810551340578,-0.0932257810634098,0.639429263516751,4.89169751621697,1.74344576210270,4.59482360593473
0.750162625017243,-0.0902566155213181,0.636940843745810,5.57393149616716,1.01073324896642,4.56403277773538
0.749527957821845,-0.0851905672198080,0.635458706946767,6.05496524461617,0.148131904289587,4.28232003051552
0.750842991453300,-0.0815594421744764,0.635182108936965,7.27165616879025,-0.818141633957609,3.91735901331198
0.752039911038679,-0.0774913572791918,0.633161091195298,8.06830370964114,-1.83131580418153,3.38302287780085
0.752818537800531,-0.0728370412354213,0.629426513163206,8.47751535990553,-2.98703604737279,2.52147450606572
0.752664918018991,-0.0671346299760266,0.630570845897110,9.43352110339453,-4.23538563926098,1.75656817487247
0.754320697997306,-0.0664226309015088,0.625975647392975,11.0272266006777,-4.63842251224975,1.02161304862961
0.766984511151227,-0.0684442587915222,0.627005832974994,11.1977074623075,-3.93292881461079,0.0598358793185663
0.769893160907224,-0.0534936850053986,0.637278134273034,7.76848889317435,-2.62125842187217,-1.33697714239707
0.764378231166199,-0.0665830487825965,0.647330135014023,8.87619106493961,-1.33223102447002,-1.06937228213845
0.762023252295771,-0.0758651918150725,0.643524792669643,10.7499082799206,-0.306381245668878,-0.723118152626518
0.763855035890284,-0.0791104043985384,0.654473399885977,9.17728566268104,-0.216318996110340,-1.01868678650957
0.768515023987846,-0.0586877430474893,0.654932712548828,6.71994579544028,0.376573329423211,-1.94156217940015
0.774444683531248,-0.0567588877856592,0.647747704092423,5.62575058384792,1.11404409465236,-1.97420176637394
0.781993285522966,-0.0581919878099164,0.640861365964761,4.28923543153960,1.66793225250508,-1.37797016690859
0.784678434233043,-0.0579194736327160,0.640716827963408,2.16289803489161,2.31837207279003,-0.873396027497654
0.783506636741389,-0.0556297517813974,0.634569938548548,1.05187651053368,3.01785661724648,-0.690927318018383
0.779192014717914,-0.0537495296044795,0.629004432853361,1.66387674220258,3.90666316263336,0.446636717517706
0.765961969235218,-0.0550274953668954,0.631601648349922,2.52710304877013,3.98533083149296,1.26612747508138
0.756485253687255,-0.0554535059290569,0.627633585909285,2.97639492926242,3.02207664999507,1.12928284230194
0.752317358783116,-0.0577913929578286,0.628543735693663,2.62649364371360,1.86858192295827,0.681638649786543
0.753646012534878,-0.0606503321575578,0.635465332487659,1.98458746762623,1.20404864818357,0.327564288181970
0.755765180748593,-0.0611900667826412,0.636453297301916,2.12977139835382,0.981400196230319,0.199839848485229
0.758079620844002,-0.0599451741414104,0.640567057052958,1.23706685584184,1.05269622006294,0.0900389316308222
0.759430051135014,-0.0559640246335045,0.645808386464973,0.515316615781104,1.26895444834335,0.000830584550680372
0.760737980316000,-0.0550070085612380,0.646948940032695,-0.322395589370411,1.55440382521229,-0.146725743748766
0.761249943332628,-0.0545627227464511,0.648640572214201,-0.942650755139491,1.80514998315245,-0.277489371048102
0.760688953419835,-0.0550949366854046,0.650436216792377,-1.21090520407382,1.69588391123604,-0.575379731089083
0.759354999583799,-0.0528976313709576,0.647706912176645,-1.26222748801302,1.56467097663969,-1.01318453383640
0.759238676926833,-0.0587524071091470,0.646379321446731,-1.28523858221328,1.35256712881690,-1.47335798276594
0.759477053441718,-0.0659082880013310,0.643577410833878,-0.907709017901560,1.17130506526977,-1.68243358556731
0.759445810091592,-0.0704695369907425,0.644020298630911,-0.600151874035450,0.984476286228093,-1.78528409398159
0.758155903421269,-0.0723075897475266,0.643286413911118,-0.409545357941782,0.850079753935857,-1.83313632865387
0.758156365556195,-0.0731437855205405,0.642170226770839,-0.318295327370730,0.744774338521083,-1.89499096605209
0.758250892093052,-0.0729318200149237,0.642069256161316,-0.523344984361842,0.682021881764380,-1.95765368455855
0.758566605840355,-0.0725762399194767,0.641770055892067,-0.588971669761593,0.533853097342857,-1.99772690278298
0.759296796686004,-0.0733059107487764,0.642182211311017,-0.139219864262396,0.445127582386646,-2.01899514408312
0.759345275833360,-0.0726907935377942,0.642546072870967,-0.131847484435440,0.456441488648906,-2.06337098124588
0.759747740696842,-0.0729581423080352,0.644301827243952,0.263976274077222,0.509369948577387,-2.00968978701439
0.760790587373993,-0.0742932537272916,0.646741549485857,0.747579397052723,0.730374236031708,-1.80623473419025
0.761270412597589,-0.0762720562041849,0.647213191329390,0.749364408405497,0.939561558530573,-1.64872958138452
0.760642773914635,-0.0803692007909931,0.647367192467038,1.31598882184843,0.889465587664102,-1.36979201784678
0.758958982906329,-0.0852275518796423,0.646392207112040,1.72676581725204,0.884515956662539,-0.882950956213848
0.757488854608720,-0.0883073643125421,0.645749860806692,2.13748414986849,1.08421104261141,-0.187968644670513
0.757875655238936,-0.0931796863215845,0.645584847077084,3.07842599071811,1.28735212345320,0.686803536629700
0.759194559723419,-0.0948018853216212,0.645910319974171,3.59207431828649,1.41911449785770,1.64369207238451
0.759667064690829,-0.0966828345327903,0.646667308634181,4.34994045965629,1.59517164750521,2.72231809264467
0.758597676161688,-0.0965818768954702,0.646262459942228,4.69673940318252,1.80578320145566,3.59204825872813
0.757497786339770,-0.0925617461880755,0.646464999745411,4.75130829045812,1.81945203549352,4.22023984368270
0.754882093434172,-0.0909544694055722,0.645000514695308,5.44584810365235,1.57080041706844,4.67065138511718
0.752079592910110,-0.0873022712691019,0.642761162040021,5.86996854288568,1.16331452157465,4.87255636610691
0.750835240823958,-0.0847450243954421,0.640060026534052,7.22385247672638,0.606102174683079,4.97758171563712
0.751491048759838,-0.0843733493998639,0.638991220367951,8.86495948263366,-0.108244052464940,5.08706454842738
0.751888779949158,-0.0802151793421728,0.637589016976585,9.96492714143214,-0.875343815323247,4.96269383372688
0.751517895344561,-0.0742391842974833,0.639233882190059,10.5429817572859,-1.63768858808882,4.30294603180365
0.750112731140069,-0.0669717071652880,0.636961700028529,10.6829473304954,-2.38482440750053,2.66002490808891
0.749804787675108,-0.0606052624630636,0.634777872257480,12.0319133646886,-3.04555775129850,0.907451870974445
0.757190371754383,-0.0479575020583740,0.625296021475543,12.2367650465468,-2.71651046804684,0.885067138811432
0.769218435963612,-0.0517575401657312,0.631180455961485,6.75610187330232,-1.91339600083835,-0.814326927161047
0.768688406737730,-0.0320899295963991,0.641919950501746,-0.957393340794229,-1.20423641395962,-3.03833543083301
0.751462015633989,-0.0335369500768012,0.641854730931895,-2.67377481349491,-1.46753156572941,-4.84883980975089
0.750086831192356,-0.0402691257645636,0.637158395505634,-2.91987431295758,-1.25594957325382,-5.61075726118289
0.766230241836569,-0.0441473872749583,0.653567197494766,-4.86686082722297,-0.334696465471749,-5.42149886698100
0.777233954244222,-0.0599337191037205,0.660225187081604,-4.78929607644118,0.777585980871649,-4.40083813241646
0.783643643364610,-0.0718011488547283,0.655767536338813,-3.02613704824522,1.70008492049098,-2.78190267634773
0.784598061577944,-0.0740268918336916,0.652057306899731,-2.79917994730732,2.83661786404728,-1.26089554524452
0.782903962381449,-0.0711491326561097,0.644910913865709,-0.797364447371091,3.97929628504934,-0.0649643752379165
0.778875977145331,-0.0728727660537897,0.627438570331952,4.77606161797794,4.47395063862694,0.601489892755775
0.769720987014998,-0.0643029411632005,0.628063610378679,7.35735070899946,4.39333336979683,1.48978946777057
0.761111847212724,-0.0653760722891621,0.623683921379932,8.11415158242310,3.51198531074899,1.71129068831040
0.755347936084493,-0.0663578869563290,0.618876159451250,8.02006104553478,2.49738790235829,1.09640080781783
0.756001471281365,-0.0652539868194670,0.627671691904703,6.41900711372744,1.88283711769203,0.414302826778499
0.757735963972281,-0.0626043990772571,0.637280485131472,4.42268252681591,1.53585968580812,0.0636402121433487
0.756872008837235,-0.0613766034571300,0.642119182412794,3.91327930684390,1.42620591996215,0.0299866705982865
0.754010160120322,-0.0585327933608798,0.647214015175709,3.01357774475389,1.49396529235454,-0.0390629653772857
0.751757654273009,-0.0554907568837014,0.650554601302492,1.50355958030229,1.53595963076082,-0.464548522213723
0.752650029600350,-0.0559639338012959,0.652954922744154,0.523703456559760,1.66964245110229,-0.775531415200494
0.753673612070716,-0.0585966847723415,0.653040894900776,-0.386775233621446,1.69597229110441,-1.00995770842900
0.754695201382960,-0.0566512190378733,0.653352579661009,-0.611221085676470,1.65617533851108,-1.27816460322505
0.755527581701107,-0.0577533275752761,0.650043188185760,-0.256604819935532,1.66570539643042,-1.48362497141607
0.756440641937352,-0.0569102366719970,0.648283438700860,-0.116442475410965,1.75064662866565,-1.45664239586798
0.758027969385218,-0.0622444226500392,0.648370563515789,-0.374413789537513,1.86491601606687,-1.39701706483225
0.759219237769267,-0.0675039813087393,0.645959481500139,-0.213252518037726,1.67185500379490,-1.34209379044351
0.759735753364655,-0.0710637538703991,0.643952301316287,-0.0532733346955056,1.51071751210322,-1.38240885745098
0.758830854831512,-0.0741683664146317,0.641809551005664,0.379060750226171,1.34661202480980,-1.50882656410303
0.757567379261412,-0.0723889556692101,0.641602699631177,0.325862200467291,1.17771388962461,-1.71457059773658
0.757831517173883,-0.0734757727757022,0.640340850794927,0.635628905475911,0.997642109203669,-1.92796933736185
0.759270853559570,-0.0730234002227257,0.640377170051149,0.755725737678993,0.749345260773225,-2.09004085534510
0.761039506158658,-0.0716783001552314,0.640262099397275,0.751238373119761,0.623155437205030,-2.14965740383533
0.762045961494003,-0.0744534913831531,0.640579485261087,1.29471099636975,0.647751712745885,-2.04645757352172
0.763167605460268,-0.0754300771565591,0.642275825029625,1.16042277544102,0.818216228784799,-1.85268730346028
0.763015905769371,-0.0799556695240369,0.645559772133414,1.60234549686903,1.00235698345668,-1.48444820020297
0.761680227034906,-0.0854206904179330,0.647448970143658,2.10489108749225,1.26132899388852,-0.777891406746100
0.759336312233443,-0.0905752136582376,0.647945977998619,3.20130314384857,1.45538303912185,0.167031482749228
0.757251407561767,-0.0938602954129665,0.647330154093392,3.82243976795288,1.52338845480193,0.981143108385686
0.756464059771744,-0.0937170368069736,0.645180059867706,4.13184736116175,1.62496213210537,1.47657164813728
0.755309773944865,-0.0907465786663435,0.644034269237672,4.17277901471795,1.65239923507274,1.93947483854031
0.756902524727947,-0.0901321060611144,0.642765511718687,4.76236421070569,1.30452623808800,2.56172813156218
0.757833650331766,-0.0903734098471978,0.642449341616877,5.50808921138344,0.961953663405192,3.33341645731477
0.756887310429762,-0.0879471155266709,0.642220242997158,6.23956326590367,0.821666430751060,3.98027229991721
0.755381206030848,-0.0854412052760712,0.642112528713322,6.99970510064720,0.537518975895304,4.32730971626739
0.754912601471144,-0.0815797890656598,0.641386787677857,7.39921047177138,0.267482773269267,4.30863718595585
0.755524035825254,-0.0776086019658589,0.640376870178402,7.94953354288532,0.0122433842732466,4.18627274821616
0.755590778064953,-0.0751887094054999,0.638582730722269,8.31775511093874,-0.491195378208935,3.96748698685686
0.755364233324944,-0.0722238294115371,0.635386821754737,8.91673372402189,-1.22391963937411,3.52799804448688
0.754815164473458,-0.0691683282864801,0.630788024356918,9.85392589592739,-2.16586423559642,2.69742516491180
