Time_stamp,Ax,Ay,Az,Gx,Gy,Gz,Label
22:15:30.270,0.791260,-0.095459,0.616699,-15.030488,80.396347,-30.792685,0
22:15:30.343,0.794678,-0.091064,0.600586,-0.213415,1.067073,-1.250000,0
22:15:30.372,0.795410,-0.090820,0.602783,1.036585,1.646342,-1.006098,0
22:15:30.429,0.797119,-0.089111,0.602295,-0.121951,2.408537,-0.579268,0
22:15:30.435,0.790039,-0.082275,0.612061,-0.335366,2.835366,-0.640244,0
22:15:30.469,0.782715,-0.090576,0.610840,2.195122,2.103659,-0.701220,0
22:15:30.505,0.776367,-0.072754,0.605713,-1.859756,0.914634,-1.798781,0
22:15:30.537,0.773438,-0.077637,0.602051,1.524390,0.121951,-2.682927,0
22:15:30.568,0.777832,-0.084961,0.600586,1.128049,0.487805,-2.073171,0
22:15:30.600,0.780518,-0.085449,0.611816,0.091463,0.609756,-1.829268,0
22:15:30.633,0.781982,-0.090332,0.618652,1.646342,0.579268,-1.615854,0
22:15:30.668,0.780518,-0.089844,0.605225,0.487805,0.914634,-1.615854,0
22:15:30.707,0.784668,-0.093262,0.607910,0.335366,1.097561,-1.158537,0
22:15:30.736,0.780273,-0.095703,0.608887,1.463415,1.615854,-1.341463,0
22:15:30.769,0.780029,-0.079590,0.618652,0.213415,2.560976,-1.219512,0
22:15:30.806,0.786377,-0.085205,0.617188,-0.182927,2.652439,-1.524390,0
22:15:30.835,0.786133,-0.078369,0.620605,0.335366,2.225610,-2.073171,0
22:15:30.871,0.783691,-0.074707,0.617432,-2.652439,2.743902,-2.713415,0
22:15:30.906,0.784180,-0.066650,0.621338,-1.402439,4.054878,-4.481708,0
22:15:30.937,0.788818,-0.043213,0.620361,-4.939024,4.817073,-6.128049,0
22:15:30.970,0.782471,-0.040039,0.620850,-4.542683,4.115854,-7.896342,0
22:15:31.006,0.775879,-0.060547,0.612305,-1.493902,2.957317,-7.469512,0
22:15:31.039,0.772705,-0.081787,0.602783,0.365854,1.097561,-7.621952,0
22:15:31.049,0.771484,-0.092041,0.605469,2.378049,-0.335366,-6.006098,0
22:15:31.107,0.767822,-0.112549,0.613037,3.201220,-1.067073,-4.024390,0
22:15:31.148,0.766357,-0.127930,0.612305,6.067073,-0.975610,-1.432927,0
22:15:31.156,0.773438,-0.135010,0.605713,3.932927,-0.335366,0.274390,0
22:15:31.199,0.775391,-0.114014,0.621826,2.530488,0.823171,0.609756,0
22:15:31.206,0.776855,-0.097656,0.623779,1.067073,1.432927,0.365854,0
22:15:31.242,0.774170,-0.080566,0.616943,-1.981707,0.823171,-0.701220,0
22:15:31.306,0.770996,-0.076904,0.612305,1.219512,-0.274390,-1.676829,0
22:15:31.318,0.769775,-0.048340,0.593506,1.189024,-1.097561,-2.134146,0
22:15:31.364,0.775635,-0.053223,0.569580,-0.579268,1.646342,-4.451220,0
22:15:31.398,0.795410,-0.059570,0.621094,-0.548781,0.365854,-4.420732,0
22:15:31.427,0.769043,-0.063965,0.631836,-3.109756,3.628049,-6.250000,0
22:15:31.465,0.750244,-0.036133,0.728271,4.085366,2.286585,-4.298780,0
22:15:31.474,0.800781,-0.079590,0.648193,7.347561,1.676829,-3.628049,0
22:15:31.530,0.782715,-0.038086,0.605469,4.573171,-0.426829,-4.481708,0
22:15:31.563,0.818115,-0.060059,0.599609,9.573171,-0.091463,-1.737805,0
22:15:31.576,0.839600,-0.107910,0.606689,5.762195,1.981707,1.432927,0
22:15:31.609,0.818848,-0.086182,0.636719,-4.298780,4.847561,3.658537,0
22:15:31.646,0.782959,-0.077881,0.598633,8.170732,7.164634,3.689024,0
22:15:31.684,0.760986,-0.090820,0.602539,13.323171,4.847561,4.573171,0
22:15:31.718,0.726074,-0.025879,0.598389,6.951220,1.036585,3.292683,0
22:15:31.750,0.759766,-0.064697,0.613525,7.682927,-1.189024,0.457317,0
22:15:31.782,0.786621,-0.067383,0.608643,6.981708,-1.798781,0.365854,0
22:15:31.821,0.785400,-0.053223,0.613281,5.701220,-1.371951,1.341463,0
22:15:31.832,0.776123,-0.053223,0.625732,2.439024,-1.524390,0.609756,0
22:15:31.883,0.766357,-0.034912,0.633789,-0.213415,-2.256098,-1.097561,0
22:15:31.919,0.765869,-0.035400,0.614746,0.762195,-1.463415,-2.042683,0
22:15:31.928,0.778076,-0.049072,0.619385,-1.585366,-0.030488,-1.585366,0
22:15:31.976,0.784180,-0.051758,0.645752,-2.378049,-0.121951,-1.432927,0
22:15:33.476,0.782959,-0.076904,0.626709,-1.006098,2.042683,-1.036585,0
22:15:33.528,0.775635,-0.069336,0.621094,0.945122,2.256098,-0.945122,0
22:15:33.563,0.777588,-0.074463,0.623291,0.640244,1.859756,-0.823171,0
22:15:33.600,0.780029,-0.064453,0.622559,0.670732,1.890244,-1.006098,0
22:15:33.646,0.779297,-0.066650,0.622559,2.103659,2.103659,-0.975610,0
22:15:33.654,0.780029,-0.055664,0.622559,0.152439,1.859756,-1.432927,0
22:15:33.703,0.779053,-0.057861,0.624512,-0.884146,2.225610,-2.774390,0
22:15:33.748,0.775146,-0.045654,0.625488,-2.042683,2.804878,-3.841464,0
22:15:33.773,0.778564,-0.046143,0.626709,-1.981707,3.109756,-4.969512,0
22:15:33.807,0.788818,-0.036133,0.622559,-4.146341,2.682927,-6.524390,0
22:15:33.818,0.780029,-0.036377,0.624756,-5.762195,2.743902,-7.347561,0
22:15:33.849,0.771729,-0.047363,0.613525,-1.829268,2.378049,-7.865854,0
22:15:33.880,0.767334,-0.055908,0.618652,-0.518293,1.219512,-7.530488,0
22:15:33.915,0.775146,-0.066406,0.613770,0.579268,0.243902,-7.134147,0
22:15:33.970,0.778809,-0.076904,0.614990,2.713415,0.304878,-7.012195,0
22:15:34.005,0.769775,-0.065186,0.621338,-1.768293,0.121951,-7.347561,0
22:15:34.018,0.766113,-0.073975,0.621582,0.548781,-0.579268,-6.585366,0
22:15:34.049,0.764404,-0.082764,0.614990,2.134146,-1.371951,-4.786585,0
22:15:34.081,0.764404,-0.071777,0.641846,4.756098,-3.109756,-3.628049,0
22:15:34.114,0.759033,-0.068359,0.600342,3.932927,-2.957317,-3.140244,0
22:15:34.152,0.787598,-0.066406,0.612549,3.262195,0.670732,-2.439024,0
22:15:34.182,0.786133,-0.073975,0.614990,-3.048780,2.804878,-5.457317,0
22:15:34.220,0.771240,-0.056396,0.677246,-4.542683,2.408537,-6.554878,0
22:15:34.253,0.763184,-0.046631,0.622314,1.859756,-0.518293,-5.274390,0
22:15:34.284,0.782471,-0.049561,0.615479,4.542683,0.274390,-2.530488,0
22:15:34.316,0.810791,-0.011475,0.654541,-0.304878,0.426829,-2.286585,0
22:15:34.348,0.825684,-0.041260,0.607178,5.030488,1.951220,-1.006098,0
22:15:34.384,0.829834,-0.065674,0.599854,-0.640244,4.054878,1.402439,0
22:15:34.435,0.798340,-0.032959,0.603271,-7.896342,5.731708,1.189024,0
22:15:34.469,0.769531,-0.061035,0.565430,2.256098,4.878049,-0.060976,0
22:15:34.482,0.775146,-0.056885,0.600830,7.682927,2.378049,3.597561,0
22:15:34.526,0.757324,-0.034424,0.583984,7.317073,-0.914634,1.829268,0
22:15:34.533,0.755127,-0.046631,0.561035,9.847561,-4.176829,-1.707317,0
22:15:34.584,0.778076,-0.022217,0.623047,-1.524390,-3.170732,-0.701220,0
22:15:34.625,0.783936,-0.040283,0.645996,4.542683,-2.378049,0.640244,0
22:15:34.639,0.785889,-0.046143,0.629395,4.329268,-1.128049,0.579268,0
22:15:34.660,0.777344,-0.014893,0.642334,-1.097561,-0.121951,-1.707317,0
22:15:34.717,0.777832,-0.034180,0.631592,0.945122,0.487805,-1.189024,0
22:15:34.754,0.782715,-0.038086,0.634766,2.347561,1.128049,-0.701220,0
22:15:34.809,0.785156,-0.036377,0.637695,-1.981707,2.408537,-1.707317,0
22:15:34.819,0.784668,-0.023438,0.631348,-4.451220,3.414634,-1.859756,0
22:15:36.413,0.767822,-0.079590,0.632324,0.000000,0.426829,-2.073171,0
22:15:36.466,0.772949,-0.079346,0.627930,1.493902,0.365854,-2.256098,0
22:15:36.485,0.774902,-0.073730,0.631592,0.975610,1.067073,-1.951220,0
22:15:36.522,0.775391,-0.075684,0.631348,0.609756,1.798781,-1.463415,0
22:15:36.556,0.773193,-0.074951,0.629639,0.640244,1.615854,-1.524390,0
22:15:36.588,0.771240,-0.069336,0.625488,0.579268,1.737805,-1.676829,0
22:15:36.623,0.771240,-0.064453,0.626709,0.426829,2.042683,-2.225610,0
22:15:36.656,0.777588,-0.045898,0.628906,-1.097561,2.103659,-2.987805,0
22:15:36.688,0.780273,-0.041992,0.631348,-2.042683,2.804878,-4.329268,0
22:15:36.725,0.783691,-0.030518,0.639648,-7.743903,4.024390,-8.262196,0
22:15:36.760,0.764648,-0.031006,0.628906,-11.006098,3.658537,-9.664635,0
22:15:36.797,0.760742,-0.053223,0.629639,-8.201220,2.682927,-10.182927,0
22:15:36.804,0.755615,-0.065186,0.620117,-3.597561,1.585366,-9.451220,0
22:15:36.860,0.762695,-0.061279,0.619385,-5.060976,-0.152439,-10.548780,0
22:15:36.893,0.757568,-0.075684,0.617188,-2.957317,-1.493902,-10.030488,0
22:15:36.933,0.758545,-0.092041,0.617188,1.768293,-2.439024,-7.987805,0
22:15:36.966,0.760742,-0.091309,0.626221,2.652439,-3.536585,-5.731708,0
22:15:36.973,0.755615,-0.089600,0.627197,7.164634,-5.518293,-4.115854,0
22:15:37.023,0.761963,-0.102783,0.577637,3.506098,-0.030488,-7.530488,0
22:15:37.055,0.792236,-0.065430,0.642578,-8.475610,2.103659,-7.073171,0
22:15:37.089,0.788086,-0.048828,0.647949,-23.750000,0.030488,-11.707317,0
22:15:37.130,0.760742,-0.054443,0.605469,-8.719512,0.914634,-8.658537,0
22:15:37.138,0.765381,-0.062256,0.665527,-7.164634,0.213415,-4.908537,0
22:15:37.193,0.814453,-0.061768,0.629639,-1.036585,-0.823171,-4.512195,0
22:15:37.224,0.815918,-0.036865,0.614502,4.847561,0.914634,-3.018293,0
22:15:37.240,0.832764,-0.064453,0.640381,2.317073,3.902439,0.884146,0
22:15:37.273,0.818359,-0.100586,0.647217,2.164634,6.676829,4.786585,0
22:15:37.312,0.788086,-0.072266,0.621094,5.670732,6.981708,4.786585,0
22:15:37.371,0.765869,-0.068359,0.566162,13.414635,6.676829,6.341464,0
22:15:37.378,0.768311,-0.086426,0.619629,8.902439,3.384146,2.530488,0
22:15:37.405,0.752930,-0.053955,0.584229,4.847561,0.396341,0.060976,0
22:15:37.439,0.771729,-0.075928,0.628174,6.371952,0.304878,0.518293,0
22:15:37.468,0.770508,-0.051025,0.634766,0.335366,-0.213415,-0.182927,0
22:15:37.506,0.767090,-0.049072,0.631104,3.170732,-0.274390,0.030488,0
22:15:37.545,0.766113,-0.054688,0.636230,2.317073,0.548781,0.457317,0
22:15:37.580,0.765137,-0.040039,0.635254,0.853659,0.762195,0.365854,0
22:15:37.608,0.769531,-0.047852,0.637939,1.067073,1.128049,-0.243902,0
22:15:37.640,0.770020,-0.038574,0.632080,0.548781,0.823171,-0.121951,0
22:15:37.678,0.774658,-0.057129,0.638184,-1.006098,1.371951,-0.579268,0
22:15:37.682,0.766113,-0.036133,0.633301,-0.396341,1.524390,-1.097561,0
22:15:37.742,0.770508,-0.046387,0.636963,1.402439,1.646342,-0.640244,0
22:15:39.144,0.767822,-0.080811,0.627930,0.365854,1.493902,-1.707317,0
22:15:39.179,0.769775,-0.086914,0.632080,0.182927,1.493902,-1.463415,0
22:15:39.193,0.764404,-0.090332,0.632568,1.219512,1.951220,-1.219512,0
22:15:39.228,0.772705,-0.080078,0.630859,0.396341,1.585366,-1.768293,0
22:15:39.266,0.766846,-0.076660,0.630859,-1.189024,1.646342,-2.621951,0
22:15:39.306,0.767578,-0.060059,0.635498,-0.853659,2.530488,-2.652439,0
22:15:39.338,0.767334,-0.064209,0.636963,-2.682927,3.384146,-4.298780,0
22:15:39.352,0.762695,-0.035889,0.644287,-8.963415,4.207317,-8.414635,0
22:15:39.397,0.766113,-0.047852,0.637939,-8.231708,4.420732,-9.329268,0
22:15:39.431,0.764648,-0.070312,0.624023,-4.969512,3.140244,-8.689025,0
22:15:39.466,0.768799,-0.090820,0.633789,-2.530488,1.006098,-7.621952,0
22:15:39.504,0.767090,-0.094482,0.623779,-0.579268,0.701220,-6.829268,0
22:15:39.512,0.761963,-0.099365,0.622314,1.128049,0.365854,-6.250000,0
22:15:39.565,0.755615,-0.094238,0.629883,0.670732,-0.945122,-6.341464,0
22:15:39.601,0.754150,-0.108154,0.623535,-0.213415,-1.493902,-6.158537,0
22:15:39.631,0.753662,-0.103760,0.621826,-2.073171,-1.524390,-7.103659,0
22:15:39.665,0.753418,-0.090820,0.635254,-4.268293,-3.384146,-8.323171,0
22:15:39.677,0.739990,-0.080322,0.579590,-3.780488,-3.201220,-8.719512,0
22:15:39.709,0.806885,-0.126465,0.617188,-10.823171,-0.762195,-10.975610,0
22:15:39.742,0.745605,-0.059082,0.697021,-11.432927,-2.835366,-10.182927,0
22:15:39.773,0.730225,-0.126709,0.637207,-2.560976,-1.707317,-9.054878,0
22:15:39.807,0.808350,-0.077637,0.714600,-6.890244,-0.274390,-6.615854,0
22:15:39.868,0.836182,-0.067871,0.679688,-5.243903,5.304878,-1.371951,0
22:15:39.877,0.847412,-0.118408,0.647217,-3.262195,7.774390,3.993902,0
22:15:39.928,0.821777,-0.062988,0.622070,-9.512196,9.847561,6.920732,0
22:15:39.961,0.789795,-0.077148,0.590332,13.231708,10.030488,9.756098,0
22:15:39.994,0.752686,-0.089111,0.531982,21.981709,7.439024,10.182927,0
22:15:40.027,0.732666,-0.087646,0.574463,18.140244,2.621951,4.085366,0
22:15:40.071,0.744385,-0.088867,0.594971,11.524390,1.737805,2.774390,0
22:15:40.080,0.748047,-0.123291,0.674072,5.274390,0.945122,2.073171,0
22:15:40.135,0.745605,-0.091553,0.670898,3.231707,0.426829,1.402439,0
22:15:40.146,0.740479,-0.089844,0.649902,2.835366,0.487805,0.579268,0
22:15:40.187,0.743896,-0.061035,0.643799,2.621951,-0.914634,-0.701220,0
22:15:40.229,0.749512,-0.061035,0.624268,1.036585,-1.006098,-0.792683,0
22:15:40.237,0.760742,-0.069580,0.648438,2.195122,-1.250000,-0.518293,0
22:15:40.289,0.773438,-0.066650,0.654297,-0.152439,-0.518293,0.640244,0
22:15:40.296,0.774414,-0.068604,0.633545,-0.792683,1.463415,2.103659,0
22:15:40.323,0.774658,-0.091309,0.658203,0.579268,2.957317,2.500000,0
22:15:40.380,0.765625,-0.085693,0.651611,-1.524390,3.170732,2.317073,0
22:15:40.388,0.761963,-0.084961,0.656738,0.060976,3.079268,2.469512,0
22:15:40.425,0.753906,-0.089111,0.649658,0.609756,3.231707,2.621951,0
22:15:40.464,0.745850,-0.083008,0.647949,-0.518293,3.262195,1.920732,0
22:15:40.501,0.751221,-0.107422,0.642334,1.798781,3.109756,2.164634,0
22:15:40.536,0.750977,-0.088623,0.649902,-2.835366,3.018293,2.012195,0
22:15:40.567,0.749756,-0.093994,0.646240,1.036585,2.682927,1.615854,0
22:15:40.598,0.743652,-0.085693,0.648682,-0.060976,2.469512,1.006098,0
22:15:40.635,0.745117,-0.089844,0.646240,1.097561,2.073171,0.640244,0
22:15:42.182,0.764160,-0.077881,0.631348,0.609756,0.945122,-1.646342,0
22:15:42.227,0.765381,-0.090332,0.630615,1.737805,1.036585,-1.006098,0
22:15:42.245,0.763184,-0.089600,0.634277,1.646342,0.701220,-0.853659,0
22:15:42.287,0.766846,-0.087158,0.634521,1.402439,1.615854,-0.457317,0
22:15:42.320,0.765869,-0.080322,0.635986,-0.030488,2.439024,-1.097561,0
22:15:42.352,0.773926,-0.067627,0.643311,-0.243902,2.195122,-1.737805,0
22:15:42.389,0.776123,-0.063965,0.639893,-2.408537,3.506098,-2.378049,0
22:15:42.425,0.772705,-0.044189,0.638672,-2.317073,4.817073,-3.658537,0
22:15:42.457,0.765869,-0.040527,0.641113,-3.506098,4.390244,-5.335366,0
22:15:42.490,0.759766,-0.045654,0.634033,-2.347561,2.378049,-7.347561,0
22:15:42.524,0.752441,-0.057617,0.623535,-1.341463,0.975610,-8.475610,0
22:15:42.568,0.754883,-0.066650,0.622559,-1.768293,0.213415,-9.115854,0
22:15:42.579,0.755127,-0.085693,0.625244,-0.548781,-1.524390,-8.628049,0
22:15:42.629,0.755615,-0.100830,0.622559,0.518293,-2.225610,-7.621952,0
22:15:42.662,0.755615,-0.097900,0.626221,0.914634,-2.835366,-6.585366,0
22:15:42.670,0.757080,-0.097168,0.620361,2.073171,-3.475610,-6.310976,0
22:15:42.723,0.754395,-0.095459,0.623291,2.743902,-4.268293,-4.969512,0
22:15:42.732,0.758789,-0.091064,0.613281,-0.182927,-1.554878,-3.445122,0
22:15:42.795,0.781982,-0.116455,0.627686,-12.774390,2.469512,-5.487805,0
22:15:42.822,0.769775,-0.094238,0.677734,-12.439025,3.140244,-6.432927,0
22:15:42.828,0.732178,-0.092529,0.674805,-9.664635,1.006098,-7.042683,0
22:15:42.859,0.740234,-0.049561,0.624268,-1.554878,1.524390,-5.823171,0
22:15:42.914,0.791992,-0.054688,0.665527,1.493902,1.737805,-4.725610,0
22:15:42.947,0.837646,-0.050781,0.654541,0.243902,3.140244,-1.798781,0
22:15:42.965,0.835205,-0.095459,0.652344,1.250000,5.945122,2.347561,0
22:15:43.000,0.806396,-0.073730,0.632812,1.707317,7.286585,5.609756,0
22:15:43.032,0.777344,-0.107178,0.577881,12.286586,7.621952,7.713415,0
22:15:43.065,0.769531,-0.099854,0.539795,17.256098,6.554878,8.993902,0
22:15:43.098,0.729004,-0.054932,0.611816,14.817074,2.652439,8.658537,0
22:15:43.131,0.737549,-0.091797,0.602783,7.865854,1.036585,3.628049,0
22:15:43.166,0.739014,-0.075439,0.656982,1.219512,0.274390,0.487805,0
22:15:43.201,0.731934,-0.052490,0.664551,-2.500000,-0.792683,-1.036585,0
22:15:43.234,0.737061,-0.058105,0.643799,0.060976,-1.615854,-0.975610,0
22:15:43.267,0.750488,-0.067627,0.641602,3.384146,-1.006098,-0.518293,0
22:15:43.303,0.768555,-0.053467,0.638672,1.951220,-0.335366,-0.884146,0
22:15:43.331,0.770508,-0.058350,0.655762,0.182927,0.000000,-1.371951,0
22:15:43.369,0.768555,-0.058838,0.656006,-2.591464,0.701220,-0.579268,0
22:15:43.403,0.765625,-0.071045,0.637695,0.640244,1.189024,0.213415,0
22:15:43.435,0.757324,-0.065186,0.633301,-0.609756,0.975610,-0.853659,0
22:15:43.467,0.755615,-0.056396,0.634521,-1.493902,0.274390,-2.164634,0
22:15:43.510,0.766846,-0.064453,0.637939,-1.737805,0.518293,-1.981707,0
22:15:43.535,0.768555,-0.071777,0.637207,-1.097561,0.487805,-1.646342,0
22:15:43.566,0.763672,-0.070801,0.634033,-1.493902,0.548781,-1.859756,0
22:15:43.601,0.763184,-0.070801,0.643555,-1.585366,1.097561,-1.829268,0
22:15:45.046,0.768311,-0.101807,0.626709,0.579268,1.128049,-1.554878,0
22:15:45.089,0.770996,-0.094238,0.636230,0.548781,1.219512,-1.646342,0
22:15:45.108,0.766846,-0.098145,0.630615,1.981707,1.250000,-1.341463,0
22:15:45.152,0.763184,-0.090820,0.628174,1.585366,1.189024,-1.493902,0
22:15:45.188,0.763428,-0.090088,0.631836,0.304878,1.219512,-1.707317,0
22:15:45.222,0.760742,-0.099609,0.632568,1.280488,1.036585,-1.676829,0
22:15:45.256,0.767334,-0.096924,0.637939,-1.128049,1.585366,-2.560976,0
22:15:45.287,0.761475,-0.076172,0.643066,-5.000000,1.981707,-4.298780,0
22:15:45.324,0.767334,-0.069824,0.639648,-6.341464,2.865854,-6.006098,0
22:15:45.363,0.768555,-0.077148,0.644043,-6.615854,3.658537,-6.158537,0
22:15:45.394,0.767822,-0.062012,0.644531,-8.079268,4.847561,-6.737805,0
22:15:45.411,0.758789,-0.066895,0.632324,-7.347561,3.597561,-8.597561,0
22:15:45.438,0.744141,-0.081299,0.627441,-5.091464,1.463415,-9.817074,0
22:15:45.470,0.747559,-0.082520,0.634521,-2.926829,0.762195,-9.573171,0
22:15:45.504,0.750000,-0.092285,0.619873,-1.097561,0.030488,-8.567074,0
22:15:45.538,0.752686,-0.116211,0.617920,2.073171,-1.798781,-7.896342,0
22:15:45.571,0.755127,-0.121582,0.615967,1.890244,-2.987805,-7.652439,0
22:15:45.605,0.754883,-0.112305,0.624268,2.164634,-4.451220,-7.134147,0
22:15:45.639,0.756104,-0.127686,0.614990,6.097561,-4.634147,-6.615854,0
22:15:45.672,0.776611,-0.103760,0.621582,-0.060976,0.762195,-3.719512,0
22:15:45.708,0.792236,-0.127441,0.689697,-9.085366,4.756098,-2.591464,0
22:15:45.742,0.767578,-0.087891,0.668457,-11.128049,1.981707,-6.676829,0
22:15:45.774,0.718994,-0.069824,0.678223,-0.548781,-2.195122,-9.085366,0
22:15:45.811,0.740234,-0.012695,0.585449,11.737805,-1.768293,-6.859756,0
22:15:45.841,0.802490,-0.019287,0.676270,6.067073,-1.615854,-4.481708,0
22:15:45.873,0.849609,-0.059082,0.664307,5.213415,2.987805,-0.792683,0
22:15:45.912,0.855957,-0.110352,0.667480,5.304878,6.036585,4.908537,0
22:15:45.944,0.806396,-0.076904,0.627930,-7.865854,6.829268,5.670732,0
22:15:45.978,0.765869,-0.087891,0.555420,5.487805,6.036585,3.201220,0
22:15:45.989,0.739014,-0.053223,0.525879,12.042684,1.585366,-0.853659,0
22:15:46.044,0.728027,-0.033691,0.648682,5.060976,-1.219512,1.219512,0
22:15:46.054,0.759277,-0.099365,0.618652,5.457317,-1.920732,1.097561,0
22:15:46.112,0.772705,-0.116211,0.635742,9.115854,0.243902,2.408537,0
22:15:46.148,0.764648,-0.075684,0.656494,2.682927,1.798781,0.914634,0
22:15:46.158,0.753906,-0.067383,0.653320,1.920732,2.042683,0.426829,0
22:15:46.185,0.745117,-0.072266,0.638184,0.335366,-0.030488,-1.768293,0
22:15:46.224,0.758301,-0.070557,0.644775,-0.670732,0.609756,-1.859756,0
22:15:46.257,0.759521,-0.055664,0.629395,1.067073,1.158537,-0.884146,0
22:15:46.290,0.766602,-0.072266,0.629639,0.518293,1.829268,-1.432927,0
22:15:46.327,0.767334,-0.059326,0.641113,-0.243902,1.432927,-1.920732,0
22:15:46.359,0.763916,-0.063232,0.639893,-0.121951,0.457317,-2.103659,0
22:15:46.391,0.760254,-0.063721,0.635498,0.000000,0.274390,-2.286585,0
22:15:46.422,0.764648,-0.063477,0.643799,0.396341,0.945122,-2.103659,0
22:15:46.456,0.771973,-0.062744,0.637451,-1.432927,1.310976,-2.195122,0
22:15:47.975,0.763428,-0.091309,0.628418,1.768293,0.243902,-1.585366,0
22:15:48.015,0.761475,-0.078369,0.628906,0.487805,0.426829,-1.615854,0
22:15:48.044,0.762207,-0.083984,0.636719,0.975610,0.579268,-1.615854,0
22:15:48.074,0.762695,-0.087158,0.636719,1.676829,0.243902,-1.371951,0
22:15:48.108,0.763672,-0.084961,0.635010,0.426829,0.609756,-1.524390,0
22:15:48.166,0.762451,-0.078857,0.634521,-0.914634,1.554878,-1.890244,0
22:15:48.201,0.771729,-0.067139,0.644287,-0.640244,1.890244,-2.591464,0
22:15:48.229,0.771973,-0.055908,0.638428,-1.280488,2.378049,-3.445122,0
22:15:48.253,0.771484,-0.041504,0.642090,-5.030488,3.506098,-5.884147,0
22:15:48.283,0.768311,-0.042480,0.635254,-5.640244,3.201220,-7.987805,0
22:15:48.313,0.770752,-0.037598,0.638428,-6.006098,2.835366,-9.359756,0
22:15:48.347,0.773682,-0.056152,0.631104,-5.000000,2.286585,-9.664635,0
22:15:48.378,0.773682,-0.066650,0.633301,-5.182927,1.829268,-9.512196,0
22:15:48.418,0.761230,-0.075439,0.630127,-3.170732,1.798781,-9.268293,0
22:15:48.450,0.754639,-0.085938,0.625244,-1.402439,-0.670732,-9.085366,0
22:15:48.483,0.748779,-0.105957,0.625732,1.432927,-2.804878,-6.798780,0
22:15:48.510,0.749268,-0.119141,0.649170,3.902439,-3.292683,-3.231707,0
22:15:48.543,0.739990,-0.113281,0.604248,5.182927,-4.359756,-3.079268,0
22:15:48.579,0.739990,-0.106445,0.612793,0.853659,-2.317073,-2.896342,0
22:15:48.612,0.782715,-0.078613,0.655029,-7.195122,1.006098,-4.847561,0
22:15:48.649,0.768066,-0.083252,0.632324,-7.103659,1.676829,-6.707317,0
22:15:48.690,0.759033,-0.068359,0.651123,-9.420732,0.365854,-8.658537,0
22:15:48.699,0.737549,0.019775,0.610352,-13.871951,-1.341463,-9.054878,0
22:15:48.725,0.791260,-0.096436,0.674072,1.951220,1.737805,-4.634147,0
22:15:48.755,0.818115,-0.062500,0.652588,2.286585,2.286585,-1.951220,0
22:15:48.813,0.810791,-0.058838,0.633545,5.000000,2.621951,-0.335366,0
22:15:48.847,0.788086,-0.055176,0.612549,3.902439,2.774390,1.371951,0
22:15:48.854,0.794189,-0.112305,0.625732,6.493903,4.115854,3.841464,0
22:15:48.888,0.783936,-0.096680,0.615967,5.609756,4.268293,3.506098,0
22:15:48.921,0.773926,-0.049805,0.571533,3.109756,3.231707,-0.792683,0
22:15:48.956,0.739746,-0.012207,0.655029,1.981707,1.768293,1.737805,0
22:15:48.991,0.757812,-0.086670,0.621338,0.243902,0.884146,0.609756,0
22:15:49.026,0.760742,-0.085449,0.625488,4.024390,0.426829,0.365854,0
22:15:49.059,0.756592,-0.060303,0.631836,1.158537,0.640244,-0.731707,0
22:15:49.099,0.759277,-0.048340,0.659668,-1.859756,-0.243902,-1.250000,0
22:15:49.134,0.754150,-0.060059,0.636963,1.310976,0.548781,-0.060976,0
22:15:49.165,0.764404,-0.064453,0.635742,1.158537,1.006098,-0.701220,0
22:15:49.200,0.767822,-0.058350,0.654541,-2.134146,0.365854,-1.493902,0
22:15:49.209,0.767578,-0.064453,0.662842,1.585366,0.396341,0.640244,0
22:15:49.274,0.762939,-0.062744,0.617676,1.585366,1.310976,-0.609756,0
22:15:49.299,0.766357,-0.053955,0.634277,-1.310976,1.158537,-1.646342,0
22:15:49.388,0.766113,-0.054932,0.633789,0.762195,0.548781,-1.554878,0
22:15:49.395,0.775391,-0.068359,0.630615,3.567073,1.097561,-0.823171,0
22:15:49.405,0.773438,-0.069336,0.628174,1.768293,1.859756,-0.762195,0
22:15:51.017,0.767334,-0.085938,0.628418,0.304878,0.000000,-1.951220,0
22:15:51.043,0.762939,-0.084229,0.633301,-0.091463,0.030488,-2.530488,0
22:15:51.060,0.761963,-0.081543,0.635742,-0.030488,0.762195,-2.652439,0
22:15:51.111,0.771484,-0.079834,0.640381,-1.524390,1.615854,-2.865854,0
22:15:51.145,0.770996,-0.074463,0.643311,-2.500000,2.073171,-3.567073,0
22:15:51.189,0.765625,-0.062012,0.641357,-3.750000,2.560976,-5.701220,0
22:15:51.217,0.764160,-0.050537,0.636230,-6.158537,2.987805,-7.530488,0
22:15:51.252,0.768555,-0.058594,0.650391,-6.859756,3.536585,-8.506098,0
22:15:51.288,0.762451,-0.066162,0.634521,-7.500000,2.865854,-9.176829,0
22:15:51.320,0.759033,-0.080566,0.633301,-2.865854,1.524390,-8.445122,0
22:15:51.348,0.762695,-0.091309,0.630127,-0.975610,0.640244,-7.347561,0
22:15:51.389,0.762939,-0.101562,0.628174,-0.274390,0.518293,-6.951220,0
22:15:51.398,0.757812,-0.099609,0.634766,-0.426829,-0.121951,-6.615854,0
22:15:51.447,0.749756,-0.102783,0.630615,0.518293,-0.487805,-6.554878,0
22:15:51.479,0.751953,-0.096924,0.631104,-1.219512,-0.853659,-5.823171,0
22:15:51.513,0.747070,-0.092529,0.628662,1.524390,-1.768293,-5.213415,0
22:15:51.529,0.755859,-0.098633,0.627686,3.993902,-2.987805,-2.835366,0
22:15:51.597,0.759277,-0.081299,0.642578,2.317073,-0.304878,0.487805,0
22:15:51.606,0.789307,-0.093994,0.632324,-7.012195,0.304878,-6.036585,0
22:15:51.632,0.764160,-0.040527,0.660645,-11.097561,4.054878,-8.536586,0
22:15:51.665,0.721680,-0.097656,0.634521,1.219512,2.469512,-4.359756,0
22:15:51.717,0.772949,-0.103516,0.642090,0.731707,2.652439,-4.024390,0
22:15:51.752,0.768311,-0.051270,0.654297,3.445122,1.951220,-4.176829,0
22:15:51.761,0.801025,-0.121094,0.603271,18.292683,3.932927,2.621951,0
22:15:51.794,0.807373,-0.093994,0.636719,11.432927,3.658537,4.176829,0
22:15:51.850,0.782959,-0.051025,0.650635,5.609756,5.182927,2.743902,0
22:15:51.862,0.791748,-0.036133,0.664795,-3.780488,6.585366,2.164634,0
22:15:51.909,0.795898,-0.035889,0.623779,-2.713415,8.109756,0.579268,0
22:15:51.917,0.761719,-0.019531,0.559570,6.402439,6.829268,0.853659,0
22:15:51.946,0.721680,-0.065186,0.607666,13.109756,3.079268,1.493902,0
22:15:52.007,0.753662,-0.037842,0.641357,4.359756,2.469512,0.975610,0
22:15:52.022,0.758789,-0.080078,0.704102,-0.030488,0.731707,0.792683,0
22:15:52.065,0.738770,-0.086182,0.651367,4.359756,0.091463,0.304878,0
22:15:52.097,0.735107,-0.057129,0.635010,3.719512,0.000000,-0.762195,0
22:15:52.131,0.735596,-0.047119,0.638916,-0.213415,-0.152439,-1.463415,0
22:15:52.164,0.751221,-0.057617,0.644043,0.213415,0.121951,-0.945122,0
22:15:52.176,0.763916,-0.059326,0.656738,-0.518293,0.243902,-1.158537,0
22:15:52.210,0.758789,-0.049561,0.647949,-1.128049,0.670732,-1.463415,0
22:15:52.249,0.756836,-0.051758,0.652832,-2.073171,0.853659,-1.676829,0
22:15:52.283,0.757080,-0.043945,0.639404,-1.585366,0.518293,-2.042683,0
22:15:52.315,0.759766,-0.045898,0.640381,-1.768293,0.579268,-2.500000,0
22:15:52.348,0.763184,-0.044678,0.646484,-2.865854,0.609756,-3.353659,0
22:15:52.386,0.761963,-0.047852,0.656738,-3.963415,0.640244,-3.719512,0
22:15:54.035,0.766113,-0.106445,0.632812,2.195122,1.310976,-0.853659,0
22:15:54.065,0.761719,-0.098145,0.636963,0.091463,0.609756,-1.067073,0
22:15:54.103,0.757568,-0.096924,0.636475,1.463415,0.487805,-0.640244,0
22:15:54.139,0.757568,-0.097900,0.631836,1.432927,0.792683,-0.823171,0
22:15:54.173,0.759033,-0.081787,0.643799,-0.945122,0.731707,-1.524390,0
22:15:54.206,0.761475,-0.093506,0.644531,0.000000,1.737805,-2.256098,0
22:15:54.239,0.763916,-0.078857,0.641602,-1.524390,2.317073,-2.439024,0
22:15:54.272,0.767822,-0.086182,0.647949,-0.792683,3.109756,-3.201220,0
22:15:54.307,0.769043,-0.060059,0.645264,-6.097561,4.329268,-5.396342,0
22:15:54.347,0.767578,-0.053711,0.646729,-7.896342,4.817073,-7.134147,0
22:15:54.361,0.763428,-0.067627,0.635498,-7.621952,3.871951,-8.323171,0
22:15:54.393,0.760742,-0.079102,0.636963,-5.884147,2.682927,-8.841464,0
22:15:54.453,0.755127,-0.076416,0.636475,-5.518293,2.378049,-9.024390,0
22:15:54.460,0.750732,-0.082764,0.632080,-3.048780,1.768293,-8.871951,0
22:15:54.489,0.753906,-0.101562,0.627197,-0.304878,0.518293,-7.774390,0
22:15:54.523,0.754639,-0.108887,0.630371,1.951220,0.000000,-6.829268,0
22:15:54.562,0.752441,-0.115967,0.631104,3.628049,-0.487805,-6.067073,0
22:15:54.594,0.751465,-0.107422,0.631104,-0.884146,-1.158537,-5.335366,0
22:15:54.623,0.754395,-0.118164,0.638184,-0.640244,-1.432927,-3.932927,0
22:15:54.653,0.753174,-0.115723,0.638184,1.250000,-1.310976,-1.829268,0
22:15:54.691,0.749268,-0.113037,0.651123,3.079268,-2.621951,0.121951,0
22:15:54.725,0.746826,-0.103516,0.602783,-1.097561,-0.518293,-3.597561,0
22:15:54.759,0.784912,-0.066162,0.615723,-4.695122,0.701220,-5.182927,0
22:15:54.800,0.773193,-0.093018,0.645752,-9.390244,1.189024,-4.176829,0
22:15:54.833,0.756104,-0.114746,0.654053,-0.884146,-0.609756,-5.579268,0
22:15:54.864,0.729736,-0.014648,0.646484,-3.384146,0.975610,-4.939024,0
22:15:54.904,0.765625,-0.066650,0.672119,3.048780,1.219512,-1.890244,0
22:15:54.937,0.797363,-0.097900,0.658936,10.243902,1.310976,0.396341,0
22:15:54.970,0.797119,-0.073486,0.637207,7.743903,2.835366,0.121951,0
22:15:55.001,0.788086,-0.066895,0.625732,4.725610,3.292683,0.609756,0
22:15:55.033,0.798096,-0.093750,0.634277,-2.103659,4.664634,1.585366,0
22:15:55.071,0.783691,-0.084961,0.612305,-1.890244,4.939024,0.060976,0
22:15:55.079,0.767090,-0.074219,0.564941,5.762195,3.689024,1.463415,0
22:15:55.132,0.717773,-0.067139,0.626709,5.030488,0.823171,1.798781,0
22:15:55.165,0.750977,-0.062988,0.617920,-2.134146,0.335366,-0.030488,0
22:15:55.175,0.761230,-0.116943,0.644775,3.506098,-0.030488,0.640244,0
22:15:55.235,0.754150,-0.096436,0.648682,2.042683,0.000000,0.152439,0
22:15:55.245,0.754150,-0.081543,0.643311,2.469512,0.579268,-0.091463,0
22:15:55.290,0.750244,-0.076660,0.656738,-1.615854,1.189024,-1.554878,0
22:15:55.331,0.746826,-0.079102,0.657471,-1.189024,1.280488,-2.195122,0
22:15:55.338,0.751709,-0.090576,0.649170,0.396341,1.341463,-1.707317,0
22:15:55.372,0.756592,-0.083008,0.648682,1.646342,1.067073,-1.128049,0
22:15:55.398,0.756592,-0.085449,0.639160,1.707317,1.006098,-1.310976,0
22:15:55.434,0.759766,-0.075439,0.639893,2.042683,1.067073,-1.371951,0
22:15:55.468,0.759766,-0.075684,0.639893,-0.030488,0.213415,-2.012195,0
22:15:55.501,0.763428,-0.073730,0.635742,0.670732,0.274390,-2.042683,0
22:15:55.529,0.765625,-0.082031,0.634766,1.006098,0.884146,-1.310976,0
22:15:57.288,0.761230,-0.088867,0.644287,0.548781,0.213415,-1.036585,0
22:15:57.322,0.760010,-0.077637,0.639893,0.609756,1.310976,-1.006098,0
22:15:57.358,0.760498,-0.076904,0.640381,-0.091463,1.219512,-1.859756,0
22:15:57.391,0.761719,-0.068115,0.642822,-1.981707,1.006098,-2.987805,0
22:15:57.425,0.766113,-0.066650,0.645508,-3.963415,1.737805,-4.115854,0
22:15:57.461,0.765869,-0.068604,0.642334,-3.353659,2.560976,-4.756098,0
22:15:57.494,0.767578,-0.074707,0.656006,-6.219512,3.262195,-6.036585,0
22:15:57.527,0.760254,-0.062012,0.645020,-9.115854,3.719512,-8.048780,0
22:15:57.559,0.758301,-0.067139,0.637939,-5.518293,3.384146,-8.506098,0
22:15:57.595,0.759521,-0.070801,0.635986,-4.146341,2.804878,-8.475610,0
22:15:57.629,0.760986,-0.074463,0.636719,-3.079268,1.768293,-8.475610,0
22:15:57.671,0.760010,-0.089111,0.634277,-1.829268,1.128049,-8.048780,0
22:15:57.680,0.757080,-0.092285,0.630615,-1.097561,0.914634,-7.256098,0
22:15:57.728,0.758057,-0.106201,0.637695,-0.213415,0.426829,-6.067073,0
22:15:57.765,0.750000,-0.097900,0.634766,-1.646342,-0.152439,-5.975610,0
22:15:57.793,0.747314,-0.103516,0.641846,-1.432927,-0.670732,-5.304878,0
22:15:57.854,0.747803,-0.105957,0.633789,-1.554878,-0.487805,-4.481708,0
22:15:57.866,0.751465,-0.103516,0.644043,-0.914634,-0.670732,-2.865854,0
22:15:57.885,0.754150,-0.111816,0.640381,0.670732,-0.731707,-1.951220,0
22:15:57.918,0.750488,-0.084961,0.641113,-0.152439,-0.304878,-2.408537,0
22:15:57.950,0.750732,-0.074951,0.637451,0.457317,-1.341463,-3.109756,0
22:15:57.981,0.754639,-0.078125,0.636230,1.036585,-2.621951,-3.231707,0
22:15:58.024,0.760010,-0.077393,0.637207,2.042683,-2.896342,-2.804878,0
22:15:58.037,0.784668,-0.071777,0.599365,8.353659,-0.121951,-0.823171,0
22:15:58.092,0.780762,-0.079834,0.658447,11.036586,1.310976,1.432927,0
22:15:58.126,0.779297,-0.038574,0.661621,-4.024390,0.457317,-4.786585,0
22:15:58.156,0.752197,-0.076416,0.639404,8.201220,2.500000,-3.140244,0
22:15:58.189,0.741943,-0.112549,0.626709,9.939025,3.658537,-0.670732,0
22:15:58.224,0.779297,-0.093262,0.648438,11.463415,3.871951,0.487805,0
22:15:58.234,0.763428,-0.043701,0.653809,12.652439,2.896342,-0.396341,0
22:15:58.290,0.768799,-0.045654,0.649902,8.689025,1.737805,-1.890244,0
22:15:58.323,0.777832,-0.052734,0.638428,6.981708,0.975610,-0.731707,0
22:15:58.356,0.813232,-0.046631,0.670898,3.048780,2.987805,0.396341,0
22:15:58.402,0.802002,-0.013672,0.692871,-6.067073,4.451220,0.457317,0
22:15:58.410,0.796143,-0.033447,0.666260,-5.213415,6.951220,2.073171,0
22:15:58.459,0.769531,-0.074951,0.588867,6.829268,9.085366,2.743902,0
22:15:58.487,0.748291,-0.062012,0.599365,14.298780,4.603659,3.719512,0
22:15:58.497,0.734375,-0.031250,0.610840,4.115854,3.018293,1.493902,0
22:15:58.544,0.746338,-0.103516,0.666016,1.036585,3.109756,-0.030488,0
22:15:58.552,0.741455,-0.053467,0.666504,-4.115854,2.164634,-1.250000,0
22:15:58.606,0.723877,-0.052002,0.638428,-2.743902,-0.304878,-2.286585,0
22:15:58.652,0.726074,-0.050537,0.635498,-1.920732,-0.792683,-2.682927,0
22:15:58.659,0.741943,-0.057129,0.644043,-2.073171,-1.524390,-2.926829,0
22:15:58.695,0.759277,-0.061279,0.655518,-0.640244,-1.067073,-1.615854,0
22:15:58.739,0.760986,-0.062988,0.660156,-0.823171,0.213415,-0.853659,0
22:15:58.773,0.762207,-0.055908,0.661621,0.000000,0.823171,-0.670732,0
22:15:58.806,0.755371,-0.059326,0.649414,-2.317073,0.914634,-1.280488,0
22:15:58.818,0.749268,-0.044189,0.647949,-3.597561,0.670732,-2.042683,0
22:15:58.858,0.755127,-0.063232,0.650879,0.823171,0.823171,-1.432927,0
22:15:58.890,0.755127,-0.052734,0.652588,-1.768293,0.487805,-1.158537,0
22:15:58.922,0.756104,-0.054688,0.654053,-3.597561,0.518293,-1.585366,0
22:16:00.708,0.759033,-0.084961,0.637939,0.487805,-0.060976,-1.341463,0
22:16:00.744,0.765625,-0.078369,0.645752,0.975610,0.823171,-1.310976,0
22:16:00.770,0.764160,-0.066406,0.645508,-0.518293,1.585366,-1.280488,0
22:16:00.806,0.770996,-0.063965,0.649170,-0.487805,2.164634,-1.463415,0
22:16:00.838,0.766602,-0.062012,0.657959,-2.804878,4.115854,-3.170732,0
22:16:00.877,0.764404,-0.042969,0.653076,-5.396342,4.359756,-4.695122,0
22:16:00.913,0.755127,-0.052490,0.649658,-6.676829,3.109756,-6.371952,0
22:16:00.953,0.752686,-0.062744,0.645996,-5.670732,2.652439,-7.560976,0
22:16:00.985,0.743896,-0.069092,0.640381,-4.420732,2.439024,-8.231708,0
22:16:00.995,0.751221,-0.074219,0.637695,-4.390244,1.829268,-8.871951,0
22:16:01.047,0.758301,-0.084717,0.641357,-2.896342,1.737805,-8.170732,0
22:16:01.086,0.760254,-0.096191,0.635010,-2.378049,1.646342,-7.073171,0
22:16:01.112,0.759277,-0.093994,0.640381,-3.536585,0.426829,-6.615854,0
22:16:01.148,0.747559,-0.103516,0.631836,0.091463,-0.853659,-5.701220,0
22:16:01.160,0.741943,-0.103760,0.633057,0.762195,-1.676829,-4.756098,0
22:16:01.214,0.738525,-0.098389,0.635498,0.243902,-2.804878,-4.603659,0
22:16:01.222,0.737793,-0.102539,0.635742,2.134146,-3.597561,-4.756098,0
22:16:01.281,0.739990,-0.092041,0.625977,3.140244,-3.109756,-2.926829,0
22:16:01.296,0.784668,-0.107178,0.656738,-3.323171,2.347561,-2.134146,0
22:16:01.329,0.776123,-0.093018,0.673096,-21.951220,6.524390,-7.134147,0
22:16:01.365,0.748535,-0.082275,0.686523,-5.152439,2.042683,-4.512195,0
22:16:01.397,0.692627,-0.071777,0.652832,-4.390244,0.182927,-10.548780,0
22:16:01.430,0.741455,0.006104,0.627686,-1.646342,-1.128049,-7.500000,0
22:16:01.463,0.813721,-0.076416,0.647705,5.823171,-0.853659,-5.365854,0
22:16:01.495,0.815430,-0.074219,0.624023,4.481708,0.121951,-2.195122,0
22:16:01.533,0.820068,-0.100586,0.633545,1.951220,2.012195,1.006098,0
22:16:01.566,0.787354,-0.094971,0.626465,-0.335366,2.530488,2.439024,0
22:16:01.600,0.771729,-0.092285,0.609131,6.250000,3.018293,1.768293,0
22:16:01.632,0.759766,-0.078857,0.577637,13.079268,2.865854,4.481708,0
22:16:01.690,0.744629,-0.084717,0.658203,7.134147,0.182927,0.487805,0
22:16:01.704,0.738525,-0.046143,0.626709,5.060976,-1.006098,-0.365854,0
22:16:01.712,0.761719,-0.078613,0.647705,3.719512,-0.396341,-0.060976,0
22:16:01.767,0.764648,-0.067871,0.645264,1.951220,0.670732,-0.091463,0
22:16:01.809,0.761719,-0.069092,0.665039,0.914634,1.402439,1.036585,0
22:16:01.819,0.752441,-0.069824,0.666016,2.317073,1.768293,0.396341,0
22:16:01.861,0.744141,-0.060303,0.656006,-1.006098,1.189024,-0.670732,0
22:16:01.899,0.741699,-0.056152,0.651855,-1.371951,1.250000,-1.798781,0
22:16:01.928,0.753662,-0.070801,0.652344,0.152439,2.195122,-0.792683,0
22:16:01.964,0.760010,-0.066406,0.648682,-0.121951,2.286585,-0.670732,0
22:16:01.971,0.762207,-0.061768,0.647949,-2.439024,2.012195,-1.402439,0
22:16:02.007,0.759521,-0.077637,0.634766,-1.493902,1.829268,-1.006098,0
22:16:02.059,0.762939,-0.075195,0.639893,-0.609756,1.554878,-0.792683,0
22:16:02.092,0.761230,-0.070068,0.641846,-0.030488,1.493902,-0.945122,0
22:16:02.107,0.756836,-0.062744,0.638916,1.310976,1.158537,-1.219512,0
22:16:02.146,0.756836,-0.065186,0.639404,1.067073,1.128049,-1.036585,0
22:16:02.177,0.758301,-0.067871,0.640869,-0.731707,0.945122,-1.250000,0
22:16:02.210,0.759277,-0.071533,0.649658,1.036585,1.280488,-1.128049,0
22:16:03.929,0.764893,-0.094971,0.641357,1.402439,1.432927,-1.981707,0
22:16:03.970,0.763916,-0.084961,0.643799,-1.554878,2.408537,-1.798781,0
22:16:04.000,0.761475,-0.079346,0.643066,0.060976,3.506098,-1.554878,0
22:16:04.036,0.760254,-0.068359,0.638184,-1.890244,3.353659,-3.201220,0
22:16:04.074,0.760986,-0.047607,0.652100,-2.225610,3.597561,-5.152439,0
22:16:04.115,0.763428,-0.058838,0.646484,-2.896342,4.176829,-6.341464,0
22:16:04.145,0.763672,-0.051758,0.655029,-4.329268,4.085366,-7.439024,0
22:16:04.155,0.760742,-0.066650,0.647705,-2.713415,4.054878,-7.439024,0
22:16:04.204,0.753418,-0.077637,0.635254,-2.286585,3.353659,-7.195122,0
22:16:04.247,0.750244,-0.077881,0.630859,-0.762195,2.225610,-7.256098,0
22:16:04.260,0.751709,-0.086426,0.630859,0.000000,1.067073,-6.920732,0
22:16:04.314,0.755615,-0.092041,0.631348,1.128049,0.335366,-6.402439,0
22:16:04.327,0.754150,-0.099609,0.629395,0.335366,-0.487805,-5.945122,0
22:16:04.345,0.746338,-0.095459,0.631592,3.810976,-1.951220,-5.274390,0
22:16:04.401,0.746094,-0.096924,0.637207,5.152439,-2.957317,-4.024390,0
22:16:04.421,0.736084,-0.077148,0.634521,6.250000,-4.512195,-3.201220,0
22:16:04.452,0.739746,-0.079346,0.626221,0.701220,-2.500000,-1.341463,0
22:16:04.483,0.789795,-0.125244,0.681641,-10.884147,1.920732,-6.585366,0
22:16:04.515,0.751465,-0.050537,0.717285,-9.054878,3.841464,-6.585366,0
22:16:04.548,0.726074,-0.092529,0.654541,-8.323171,2.591464,-6.890244,0
22:16:04.581,0.749023,-0.041748,0.650635,-5.792683,1.280488,-7.073171,0
22:16:04.617,0.790771,-0.051514,0.627686,-2.743902,1.646342,-6.829268,0
22:16:04.648,0.835205,-0.088867,0.655762,0.000000,3.140244,0.365854,0
22:16:04.684,0.813721,-0.111084,0.659912,3.689024,5.030488,2.652439,0
22:16:04.709,0.759521,-0.031250,0.624023,-1.859756,6.219512,1.615854,0
22:16:04.747,0.743652,-0.057617,0.585693,6.951220,6.951220,0.274390,0
22:16:04.775,0.763184,-0.073730,0.608154,11.554878,6.250000,2.591464,0
22:16:04.833,0.733154,-0.049316,0.671143,4.390244,3.170732,1.280488,0
22:16:04.868,0.736084,-0.041260,0.631836,5.152439,0.548781,-2.439024,0
22:16:04.878,0.758789,-0.087402,0.638428,3.963415,0.274390,-0.609756,0
22:16:04.930,0.756836,-0.069824,0.646973,0.182927,0.579268,0.609756,0
22:16:04.963,0.741211,-0.066895,0.659424,3.170732,0.091463,0.000000,0
22:16:04.980,0.736084,-0.066162,0.654541,2.621951,-0.823171,-1.798781,0
22:16:05.012,0.739746,-0.046631,0.650391,0.426829,-0.670732,-2.500000,0
22:16:05.044,0.753662,-0.064453,0.647461,0.975610,0.396341,-2.256098,0
22:16:05.080,0.759033,-0.066650,0.653809,2.073171,0.457317,-1.951220,0
22:16:05.115,0.758545,-0.068848,0.651855,0.701220,0.487805,-1.646342,0
22:16:05.149,0.754150,-0.050537,0.642578,-0.213415,0.518293,-2.439024,0
22:16:05.180,0.756104,-0.058838,0.645020,0.792683,0.457317,-2.164634,0
22:16:05.209,0.753174,-0.055908,0.657471,-0.853659,0.274390,-1.890244,0
22:16:05.242,0.759033,-0.061279,0.647461,0.945122,0.487805,-1.707317,0
22:16:05.283,0.755859,-0.056152,0.644531,-0.487805,0.975610,-2.042683,0
22:16:06.933,0.766357,-0.082764,0.651367,-0.487805,2.042683,-1.371951,0
22:16:06.963,0.763184,-0.078369,0.642578,0.579268,3.109756,-1.432927,0
22:16:06.982,0.759277,-0.072266,0.642578,-0.548781,3.140244,-2.774390,0
22:16:07.031,0.760498,-0.056641,0.637695,-1.920732,2.774390,-4.664634,0
22:16:07.067,0.760742,-0.049561,0.641602,-2.225610,2.743902,-5.884147,0
22:16:07.096,0.766113,-0.049561,0.642090,-2.926829,2.591464,-7.012195,0
22:16:07.128,0.769043,-0.062988,0.638916,-1.341463,2.164634,-7.042683,0
22:16:07.163,0.763184,-0.065186,0.634521,-1.707317,2.164634,-7.134147,0
22:16:07.199,0.754639,-0.062256,0.633545,-1.402439,1.615854,-7.652439,0
22:16:07.234,0.752441,-0.072021,0.633545,-1.310976,0.884146,-7.865854,0
22:16:07.266,0.754150,-0.080078,0.635742,-0.396341,0.518293,-7.896342,0
22:16:07.298,0.753662,-0.094727,0.634277,0.274390,-0.121951,-6.646342,0
22:16:07.331,0.750488,-0.097900,0.633545,-0.060976,-0.792683,-6.158537,0
22:16:07.363,0.743652,-0.088867,0.631836,-1.189024,-1.646342,-6.280488,0
22:16:07.399,0.737305,-0.089844,0.641846,-1.493902,-2.621951,-5.670732,0
22:16:07.418,0.748779,-0.076904,0.587891,-4.786585,0.853659,-6.036585,0
22:16:07.472,0.771240,-0.106445,0.643555,-10.670732,-1.219512,-6.432927,0
22:16:07.479,0.714111,-0.119629,0.730469,-5.670732,-3.993902,-8.262196,0
22:16:07.530,0.690430,-0.032227,0.617676,-7.256098,-5.152439,-13.140244,0
22:16:07.575,0.786377,-0.036621,0.737549,-7.987805,-0.121951,-8.475610,0
22:16:07.588,0.869385,-0.112061,0.733154,-0.579268,8.323171,1.676829,0
22:16:07.630,0.839600,-0.115967,0.661133,2.347561,10.060976,5.182927,0
22:16:07.641,0.797119,-0.046875,0.609619,-6.036585,11.737805,6.158537,0
22:16:07.663,0.765137,-0.074463,0.557861,3.963415,10.762196,5.091464,0
22:16:07.720,0.757324,-0.062012,0.502197,8.567074,7.317073,3.750000,0
22:16:07.753,0.712891,-0.046875,0.663086,6.768293,3.719512,6.676829,0
22:16:07.789,0.741455,-0.092529,0.623047,9.390244,0.152439,2.073171,0
22:16:07.814,0.734375,-0.084229,0.632568,8.201220,-0.731707,1.341463,0
22:16:07.844,0.736084,-0.071289,0.645020,5.853659,-0.884146,-1.585366,0
22:16:07.874,0.737549,-0.046875,0.668701,1.951220,-1.402439,-1.920732,0
22:16:07.905,0.740723,-0.065186,0.656982,3.536585,-1.128049,-1.189024,0
22:16:07.940,0.755859,-0.071777,0.663818,3.201220,-0.182927,-1.890244,0
22:16:07.973,0.758545,-0.056885,0.653564,1.646342,0.579268,-2.408537,0
22:16:08.012,0.760010,-0.061035,0.661133,1.493902,0.731707,-1.676829,0
22:16:08.047,0.758057,-0.065918,0.646240,1.676829,1.371951,-1.890244,0
22:16:08.084,0.753906,-0.052734,0.645020,0.518293,0.304878,-2.591464,0
22:16:08.122,0.756348,-0.062012,0.639160,1.280488,-0.304878,-3.079268,0
22:16:08.149,0.757812,-0.064209,0.643311,0.121951,0.000000,-2.865854,0
22:16:08.183,0.760498,-0.057129,0.647217,-0.304878,0.365854,-3.018293,0
22:16:08.194,0.759766,-0.068604,0.649658,0.548781,0.518293,-2.103659,0
22:16:09.640,0.763916,-0.090576,0.648682,0.701220,1.493902,-0.975610,0
22:16:09.664,0.764893,-0.087158,0.647705,-0.274390,1.707317,-0.701220,0
22:16:09.691,0.757080,-0.076416,0.645264,0.884146,1.951220,-1.371951,0
22:16:09.730,0.761230,-0.078369,0.633789,0.426829,1.463415,-1.920732,0
22:16:09.771,0.765869,-0.071777,0.640137,0.152439,1.371951,-1.768293,0
22:16:09.812,0.767578,-0.069336,0.638672,-0.518293,1.951220,-1.768293,0
22:16:09.846,0.761719,-0.061279,0.638672,-0.304878,1.646342,-3.658537,0
22:16:09.883,0.765137,-0.049805,0.637939,-2.926829,1.981707,-5.487805,0
22:16:09.917,0.764404,-0.048340,0.643555,-4.115854,1.920732,-6.768293,0
22:16:09.947,0.762695,-0.053955,0.633057,-3.292683,2.042683,-7.347561,0
22:16:09.959,0.762207,-0.068604,0.635986,-1.341463,1.067073,-7.560976,0
22:16:10.013,0.765381,-0.071533,0.639160,-1.280488,0.975610,-7.652439,0
22:16:10.020,0.758545,-0.071045,0.636230,0.060976,0.457317,-7.317073,0
22:16:10.070,0.760010,-0.083496,0.639404,1.189024,0.121951,-7.225610,0
22:16:10.109,0.754150,-0.083252,0.636475,0.945122,-0.060976,-7.103659,0
22:16:10.117,0.759033,-0.087158,0.637695,1.006098,-0.792683,-6.585366,0
22:16:10.171,0.750488,-0.090576,0.624023,2.591464,-2.926829,-5.945122,0
22:16:10.183,0.740967,-0.084473,0.618896,1.646342,-3.384146,-7.591464,0
22:16:10.227,0.767822,-0.070801,0.616943,2.042683,-2.012195,-4.847561,0
22:16:10.272,0.778564,-0.085693,0.640869,-8.323171,-1.585366,-7.286585,0
22:16:10.280,0.745605,-0.071045,0.631836,-8.810976,-0.762195,-7.378049,0
22:16:10.333,0.720459,-0.067139,0.625732,-14.664635,-1.585366,-8.902439,0
22:16:10.345,0.766602,-0.064453,0.670654,-12.530488,-0.823171,-7.774390,0
22:16:10.371,0.809326,-0.087646,0.667725,-1.250000,2.286585,-4.573171,0
22:16:10.428,0.843262,-0.066895,0.675537,0.518293,4.756098,1.250000,0
22:16:10.463,0.796875,-0.072266,0.633301,1.432927,4.237805,2.164634,0
22:16:10.495,0.778564,-0.059082,0.604980,0.945122,4.359756,2.774390,0
22:16:10.528,0.766846,-0.076904,0.588623,10.274390,4.115854,2.195122,0
22:16:10.544,0.766113,-0.072021,0.588379,9.878049,5.426829,3.902439,0
22:16:10.569,0.757812,-0.075928,0.636475,4.146341,3.018293,0.060976,0
22:16:10.646,0.739258,-0.039062,0.612549,6.798780,-1.189024,-1.646342,0
22:16:10.654,0.762939,-0.075928,0.614990,8.109756,-1.432927,-0.426829,0
22:16:10.691,0.762939,-0.061768,0.653320,2.134146,-0.426829,-0.853659,0
22:16:10.725,0.757324,-0.059570,0.664551,4.207317,-1.676829,-0.670732,0
22:16:10.733,0.757568,-0.065674,0.641846,3.109756,-0.213415,-1.067073,0
22:16:10.791,0.770264,-0.050049,0.653809,2.652439,1.036585,-0.701220,0
22:16:10.800,0.771240,-0.058594,0.638916,3.292683,1.402439,-0.518293,0
22:16:10.851,0.769775,-0.048096,0.637695,1.036585,1.402439,-1.006098,0
22:16:10.889,0.770020,-0.044189,0.632812,-0.182927,1.524390,-1.250000,0
22:16:10.897,0.773682,-0.056641,0.633545,2.225610,1.493902,-0.609756,0
22:16:10.957,0.770264,-0.051025,0.635254,1.432927,1.128049,-0.975610,0
22:16:12.523,0.764893,-0.079590,0.641357,0.548781,1.006098,-1.646342,0
22:16:12.562,0.764893,-0.081055,0.638916,1.524390,1.219512,-1.341463,0
22:16:12.593,0.765869,-0.079102,0.648682,-0.274390,0.701220,-1.920732,0
22:16:12.630,0.764404,-0.075928,0.638428,-1.006098,1.402439,-1.676829,0
22:16:12.664,0.760986,-0.077881,0.641846,1.371951,2.103659,-1.737805,0
22:16:12.714,0.764404,-0.057129,0.639893,-2.225610,1.829268,-3.689024,0
22:16:12.723,0.769287,-0.044189,0.645996,-4.176829,2.408537,-5.853659,0
22:16:12.767,0.764404,-0.050537,0.641602,-5.640244,3.262195,-6.341464,0
22:16:12.799,0.769287,-0.060791,0.633057,-3.658537,3.323171,-6.310976,0
22:16:12.831,0.763184,-0.059570,0.644043,-4.817073,2.926829,-7.103659,0
22:16:12.868,0.758545,-0.052002,0.630859,-5.853659,1.890244,-9.024390,0
22:16:12.880,0.749756,-0.073486,0.631348,-1.615854,0.823171,-8.536586,0
22:16:12.909,0.755859,-0.081299,0.631104,-0.853659,0.518293,-7.713415,0
22:16:12.943,0.759277,-0.088379,0.630127,-0.060976,-0.609756,-7.500000,0
22:16:12.975,0.749512,-0.092041,0.627197,1.006098,-2.012195,-7.560976,0
22:16:13.032,0.746582,-0.097412,0.621826,-0.213415,-3.018293,-6.615854,0
22:16:13.069,0.749512,-0.093262,0.626953,2.408537,-3.140244,-4.268293,0
22:16:13.083,0.760254,-0.118164,0.619141,5.030488,-1.768293,-2.012195,0
22:16:13.115,0.788330,-0.106445,0.663086,-0.975610,0.213415,0.335366,0
22:16:13.152,0.781006,-0.075928,0.650879,-0.975610,2.164634,-3.018293,0
22:16:13.177,0.754639,-0.076904,0.631348,5.396342,0.060976,-5.060976,0
22:16:13.210,0.747070,-0.045654,0.671875,-5.365854,-0.975610,-6.341464,0
22:16:13.273,0.791748,-0.044189,0.657227,19.451220,1.250000,-0.060976,0
22:16:13.282,0.789551,-0.050049,0.665771,6.829268,1.432927,-2.926829,0
22:16:13.309,0.787109,0.032227,0.670898,-3.597561,1.615854,-3.536585,0
22:16:13.339,0.795898,-0.081055,0.638916,3.231707,3.048780,0.243902,0
22:16:13.399,0.788574,-0.060791,0.614746,-2.256098,2.621951,0.792683,0
22:16:13.435,0.787598,-0.048096,0.626709,-4.969512,3.445122,0.365854,0
22:16:13.442,0.780029,-0.058350,0.595703,1.615854,2.621951,-0.426829,0
22:16:13.496,0.772949,-0.073242,0.565186,12.347561,2.042683,2.957317,0
22:16:13.510,0.766846,-0.105957,0.593994,11.128049,0.000000,0.548781,0
22:16:13.539,0.764893,-0.051514,0.596191,-0.091463,-0.945122,0.030488,0
22:16:13.573,0.759033,-0.083252,0.658447,-2.256098,-2.042683,-1.189024,0
22:16:13.606,0.737793,-0.051270,0.670166,-4.115854,-2.804878,-1.615854,0
22:16:13.641,0.736572,-0.057861,0.659424,1.128049,-1.524390,-1.493902,0
22:16:13.680,0.755859,-0.059082,0.671387,0.335366,0.091463,-0.548781,0
22:16:13.715,0.767578,-0.061279,0.672607,-0.060976,1.219512,-0.213415,0
22:16:13.745,0.765869,-0.061523,0.674805,-0.853659,2.408537,-0.884146,0
22:16:13.777,0.762695,-0.052490,0.657227,-0.030488,3.689024,-0.182927,0
22:16:13.811,0.763184,-0.052490,0.645752,0.762195,3.963415,-0.030488,0
22:16:13.842,0.764893,-0.055664,0.639404,-0.213415,2.987805,-1.158537,0
22:16:15.410,0.763184,-0.076660,0.636963,1.219512,1.554878,-1.189024,0
22:16:15.448,0.768066,-0.074707,0.630371,-0.762195,0.518293,-1.768293,0
22:16:15.483,0.765869,-0.071777,0.638428,0.792683,-0.457317,-1.707317,0
22:16:15.517,0.766602,-0.069580,0.633545,0.670732,0.457317,-1.585366,0
22:16:15.549,0.761719,-0.056152,0.637207,-0.457317,0.640244,-2.743902,0
22:16:15.585,0.764893,-0.054199,0.642578,-0.121951,1.006098,-4.085366,0
22:16:15.622,0.771729,-0.058350,0.643311,-1.646342,1.493902,-4.603659,0
22:16:15.656,0.772949,-0.055908,0.640625,-2.743902,2.530488,-5.000000,0
22:16:15.688,0.774658,-0.053711,0.640869,-3.597561,3.048780,-5.914634,0
22:16:15.720,0.768066,-0.050537,0.639648,-5.030488,2.804878,-6.768293,0
22:16:15.770,0.758057,-0.056152,0.630127,-2.926829,2.042683,-6.920732,0
22:16:15.779,0.749756,-0.062500,0.626953,-2.743902,0.609756,-8.048780,0
22:16:15.827,0.749756,-0.067139,0.626953,-3.506098,-0.548781,-8.475610,0
22:16:15.867,0.753174,-0.082520,0.635254,-0.670732,-1.798781,-7.621952,0
22:16:15.879,0.755615,-0.097656,0.634277,1.768293,-1.951220,-6.189024,0
22:16:15.922,0.756348,-0.091309,0.635498,1.097561,-1.737805,-5.243903,0
22:16:15.955,0.751953,-0.091064,0.639160,2.256098,-2.195122,-3.871951,0
22:16:15.975,0.751953,-0.095947,0.654785,4.756098,-2.225610,-2.378049,0
22:16:16.033,0.774658,-0.046387,0.615479,-0.487805,0.304878,-4.817073,0
22:16:16.049,0.776611,-0.060547,0.645264,-13.810976,2.286585,-6.554878,0
22:16:16.072,0.764404,-0.090820,0.651855,-13.628049,-0.152439,-7.713415,0
22:16:16.098,0.720947,-0.023193,0.605469,-10.121951,-0.060976,-7.896342,0
22:16:16.137,0.763428,-0.070557,0.638428,-8.414635,0.457317,-6.798780,0
22:16:16.171,0.800293,-0.095947,0.663574,-4.451220,1.402439,-3.750000,0
22:16:16.205,0.812744,-0.081055,0.645752,2.317073,3.323171,-0.335366,0
22:16:16.238,0.811279,-0.075195,0.630859,4.085366,4.908537,2.439024,0
22:16:16.267,0.797852,-0.066895,0.628174,0.914634,4.298780,2.865854,0
22:16:16.300,0.776611,-0.067871,0.613037,3.384146,3.445122,2.865854,0
22:16:16.339,0.770752,-0.090820,0.603516,12.286586,5.884147,3.323171,0
22:16:16.374,0.788574,-0.100342,0.568359,9.878049,6.402439,2.408537,0
22:16:16.401,0.732422,-0.000732,0.610352,6.646342,2.743902,2.286585,0
22:16:16.436,0.732422,-0.067139,0.599609,3.871951,0.091463,-2.195122,0
22:16:16.466,0.738281,-0.066406,0.652100,3.140244,-2.804878,-3.170732,0
22:16:16.501,0.745117,-0.055664,0.633789,4.420732,-3.109756,-3.079268,0
22:16:16.533,0.762695,-0.042480,0.639404,5.030488,-2.560976,-2.469512,0
22:16:16.573,0.769775,-0.047119,0.654785,2.439024,-1.006098,-2.560976,0
22:16:16.598,0.764648,-0.046387,0.650879,1.890244,-0.396341,-2.652439,0
22:16:16.631,0.760986,-0.050293,0.642578,2.591464,0.030488,-2.500000,0
22:16:16.661,0.767578,-0.051025,0.649902,-0.731707,0.975610,-2.682927,0
22:16:16.695,0.768555,-0.056152,0.644775,1.310976,0.853659,-1.981707,0
22:16:16.756,0.768799,-0.060547,0.640869,1.402439,0.914634,-1.676829,0
22:16:16.764,0.768555,-0.054932,0.635986,0.731707,1.707317,-1.432927,0
22:16:18.256,0.764404,-0.077637,0.629883,-0.182927,0.670732,-2.103659,0
22:16:18.288,0.766602,-0.084961,0.633789,0.243902,0.823171,-1.737805,0
22:16:18.324,0.766602,-0.087402,0.643311,-0.396341,1.768293,-1.189024,0
22:16:18.367,0.765381,-0.076172,0.641113,-1.250000,2.103659,-2.164634,0
22:16:18.400,0.762451,-0.070557,0.634277,-1.646342,1.707317,-2.987805,0
22:16:18.408,0.764160,-0.068604,0.632324,-2.469512,1.798781,-4.451220,0
22:16:18.461,0.766357,-0.060303,0.631348,-3.292683,2.408537,-4.969512,0
22:16:18.494,0.767822,-0.048828,0.644043,-4.664634,1.829268,-6.219512,0
22:16:18.531,0.764404,-0.053955,0.625000,-4.390244,1.432927,-7.256098,0
22:16:18.570,0.760254,-0.055176,0.629150,-4.939024,0.792683,-8.109756,0
22:16:18.579,0.760986,-0.063232,0.636230,-3.597561,0.640244,-8.384147,0
22:16:18.630,0.761719,-0.076172,0.636963,-2.957317,0.030488,-8.384147,0
22:16:18.663,0.760254,-0.084229,0.637451,-2.591464,-0.152439,-8.231708,0
22:16:18.697,0.756104,-0.093750,0.640869,-2.378049,-0.030488,-7.042683,0
22:16:18.734,0.750732,-0.097900,0.658447,-0.152439,-0.274390,-2.957317,0
22:16:18.742,0.747559,-0.099854,0.645264,5.731708,-2.408537,-0.762195,0
22:16:18.773,0.755859,-0.125732,0.609375,7.286585,-2.347561,-1.920732,0
22:16:18.803,0.779297,-0.110596,0.613281,8.170732,1.920732,1.189024,0
22:16:18.860,0.773193,-0.092285,0.670410,-7.317073,5.182927,-2.347561,0
22:16:18.893,0.755859,-0.112305,0.669922,2.164634,3.597561,-2.713415,0
22:16:18.907,0.739014,-0.046631,0.586914,2.804878,3.414634,-4.115854,0
22:16:18.945,0.745361,0.021729,0.631592,-12.256098,-1.128049,-9.908537,0
22:16:18.978,0.777344,-0.009277,0.618408,-9.451220,-0.914634,-10.030488,0
22:16:19.010,0.830078,-0.088623,0.668457,0.975610,3.750000,-1.067073,0
22:16:19.043,0.821045,-0.085205,0.662109,-4.878049,4.420732,1.524390,0
22:16:19.075,0.788818,-0.040771,0.610107,-6.036585,5.518293,0.609756,0
22:16:19.109,0.767822,-0.083740,0.559326,3.262195,2.926829,-1.067073,0
22:16:19.147,0.771240,-0.104004,0.610840,8.597561,0.762195,0.121951,0
22:16:19.180,0.715088,-0.037842,0.596680,6.006098,-2.865854,-0.335366,0
22:16:19.191,0.731445,-0.084473,0.605713,6.554878,-3.932927,-0.640244,0
22:16:19.242,0.762939,-0.094482,0.659668,4.207317,-1.310976,-0.975610,0
22:16:19.277,0.766357,-0.073730,0.677246,-1.219512,-0.426829,-1.189024,0
22:16:19.311,0.757080,-0.061768,0.669189,1.554878,0.243902,-0.701220,0
22:16:19.348,0.759277,-0.074463,0.654053,2.042683,1.554878,-0.792683,0
22:16:19.356,0.766357,-0.055420,0.651367,-0.243902,2.500000,-0.518293,0
22:16:19.384,0.770508,-0.068604,0.656250,2.957317,3.170732,0.579268,0
22:16:19.441,0.766357,-0.066650,0.642334,0.792683,3.353659,0.426829,0
22:16:19.477,0.767334,-0.062012,0.644775,0.762195,3.841464,-0.304878,0
22:16:19.508,0.764404,-0.057617,0.647461,0.670732,3.384146,-0.030488,0
22:16:19.515,0.765625,-0.064453,0.648193,-1.493902,2.957317,-0.335366,0
22:16:19.572,0.758545,-0.061523,0.641846,0.182927,3.048780,-0.579268,0
22:16:20.954,0.748535,-0.083008,0.631836,1.067073,-0.701220,-3.079268,0
22:16:21.020,0.762939,-0.086670,0.648682,1.219512,0.304878,-2.530488,0
22:16:21.027,0.764648,-0.090332,0.644775,1.250000,1.189024,-2.073171,0
22:16:21.055,0.768066,-0.091064,0.648193,-0.426829,0.823171,-2.347561,0
22:16:21.075,0.763916,-0.081055,0.644775,-0.335366,1.737805,-1.951220,0
22:16:21.109,0.754639,-0.073730,0.648193,-1.219512,2.500000,-2.134146,0
22:16:21.166,0.751709,-0.067871,0.643066,-3.628049,2.591464,-4.908537,0
22:16:21.200,0.760010,-0.048340,0.654541,-7.621952,2.652439,-7.073171,0
22:16:21.210,0.760254,-0.065674,0.651611,-7.500000,3.170732,-7.560976,0
22:16:21.253,0.757812,-0.072021,0.636963,-7.286585,3.079268,-7.743903,0
22:16:21.292,0.753906,-0.072021,0.644531,-5.000000,2.042683,-8.292683,0
22:16:21.324,0.746582,-0.073242,0.640869,-4.085366,0.975610,-7.987805,0
22:16:21.355,0.745361,-0.092773,0.634033,0.365854,-0.091463,-6.890244,0
22:16:21.393,0.748291,-0.095459,0.645752,0.731707,-0.853659,-6.219512,0
22:16:21.428,0.747070,-0.100342,0.639648,0.884146,-1.615854,-6.402439,0
22:16:21.461,0.742188,-0.097412,0.635498,0.274390,-2.286585,-5.609756,0
22:16:21.491,0.744141,-0.109375,0.643799,2.286585,-2.560976,-2.682927,0
22:16:21.528,0.751465,-0.111328,0.658447,6.524390,-3.841464,-1.219512,0
22:16:21.560,0.744629,-0.096680,0.588623,0.091463,0.121951,-4.481708,0
22:16:21.595,0.764648,-0.055420,0.639893,-11.463415,-0.518293,-9.146341,0
22:16:21.621,0.794678,-0.078125,0.687500,-7.560976,-3.475610,-9.847561,0
22:16:21.640,0.754883,-0.068359,0.664062,-5.518293,-0.274390,-7.012195,0
22:16:21.699,0.759033,-0.045898,0.670654,-6.128049,2.195122,-6.402439,0
22:16:21.731,0.791016,-0.075928,0.690186,-1.768293,2.652439,-4.390244,0
22:16:21.741,0.810303,-0.086670,0.640869,2.865854,4.054878,-0.487805,0
22:16:21.791,0.792969,-0.074219,0.607910,-0.182927,3.170732,-0.579268,0
22:16:21.802,0.776855,-0.072021,0.612793,-0.518293,3.536585,0.792683,0
22:16:21.829,0.784912,-0.085449,0.593506,3.048780,2.378049,1.737805,0
22:16:21.894,0.770996,-0.051025,0.531006,5.701220,1.402439,0.792683,0
22:16:21.904,0.724121,-0.053711,0.621094,7.621952,-0.640244,1.097561,0
22:16:21.947,0.760254,-0.116943,0.619385,3.170732,-1.463415,-0.030488,0
22:16:21.981,0.770996,-0.090332,0.647461,2.408537,-0.945122,-0.762195,0
22:16:22.013,0.761963,-0.078857,0.646973,2.042683,0.121951,-0.182927,0
22:16:22.050,0.756592,-0.077148,0.663574,2.987805,0.548781,0.060976,0
22:16:22.059,0.749756,-0.057373,0.670410,1.829268,0.518293,-1.158537,0
22:16:22.095,0.751709,-0.055908,0.646729,0.640244,1.615854,-1.798781,0
22:16:22.127,0.762207,-0.070068,0.651855,0.914634,2.012195,-1.219512,0
22:16:22.162,0.767578,-0.064697,0.658447,-0.365854,2.408537,-1.250000,0
22:16:22.192,0.763916,-0.062012,0.643555,0.091463,2.591464,-1.067073,0
22:16:22.226,0.762695,-0.064209,0.638184,0.884146,2.621951,-1.189024,0
22:16:23.783,0.762695,-0.093750,0.652344,0.365854,1.402439,-1.829268,0
22:16:23.812,0.759521,-0.090820,0.646729,0.304878,1.768293,-2.500000,0
22:16:23.849,0.756104,-0.079834,0.650879,-1.158537,2.317073,-2.682927,0
22:16:23.907,0.757324,-0.081787,0.647705,-0.365854,3.475610,-3.414634,0
22:16:23.944,0.763428,-0.068115,0.646973,-2.500000,2.439024,-4.664634,0
22:16:23.981,0.760010,-0.067871,0.640625,-2.134146,2.408537,-5.518293,0
22:16:24.012,0.755127,-0.060791,0.640869,-2.256098,2.713415,-6.341464,0
22:16:24.030,0.754150,-0.072021,0.640869,-2.500000,1.951220,-7.164634,0
22:16:24.073,0.756592,-0.076904,0.636719,-0.152439,1.554878,-7.469512,0
22:16:24.080,0.757568,-0.086914,0.641113,-1.829268,0.731707,-7.408537,0
22:16:24.117,0.752197,-0.097168,0.635254,0.000000,0.213415,-7.408537,0
22:16:24.152,0.746094,-0.097168,0.641846,-1.829268,-0.487805,-7.103659,0
22:16:24.186,0.744141,-0.099121,0.644531,-4.451220,-1.554878,-5.853659,0
22:16:24.220,0.748047,-0.106201,0.636230,-8.079268,-2.103659,-5.609756,0
22:16:24.254,0.752686,-0.107666,0.636230,-3.445122,-2.225610,-5.121951,0
22:16:24.284,0.754395,-0.116211,0.631104,-2.164634,-2.926829,-3.963415,0
22:16:24.317,0.760254,-0.104980,0.624268,-2.195122,-1.493902,-3.841464,0
22:16:24.350,0.771729,-0.097412,0.621582,-1.646342,1.859756,-2.835366,0
22:16:24.384,0.777588,-0.079834,0.648926,-15.396342,2.682927,-5.853659,0
22:16:24.397,0.749268,-0.085449,0.663574,-7.103659,1.402439,-5.853659,0
22:16:24.455,0.716309,-0.096436,0.595703,3.323171,1.341463,-4.695122,0
22:16:24.487,0.776123,-0.100830,0.663330,-3.323171,1.829268,-4.054878,0
22:16:24.502,0.790527,-0.082031,0.718994,-2.408537,4.878049,-3.262195,0
22:16:24.538,0.811768,-0.120117,0.705322,2.225610,7.073171,1.737805,0
22:16:24.573,0.797852,-0.115479,0.665039,-4.268293,8.353659,3.719512,0
22:16:24.606,0.772461,-0.063477,0.629395,-5.701220,9.878049,3.750000,0
22:16:24.639,0.768555,-0.087158,0.593262,8.262196,9.268293,3.810976,0
22:16:24.671,0.737061,-0.068848,0.607666,22.926830,2.378049,3.719512,0
22:16:24.722,0.720459,-0.050293,0.572754,13.963415,1.280488,3.689024,0
22:16:24.735,0.741943,-0.090088,0.645508,7.621952,1.036585,-0.914634,0
22:16:24.768,0.743164,-0.077148,0.657227,5.121951,-0.945122,-1.951220,0
22:16:24.804,0.739990,-0.096924,0.659424,7.286585,-1.097561,-0.365854,0
22:16:24.837,0.741455,-0.077881,0.653809,3.932927,-0.731707,-0.914634,0
22:16:24.869,0.742920,-0.072021,0.657959,2.195122,-0.945122,-1.524390,0
22:16:24.901,0.747559,-0.088135,0.656006,2.774390,-0.548781,-1.006098,0
22:16:24.933,0.750488,-0.070557,0.657959,1.219512,-0.396341,-0.792683,0
22:16:24.949,0.751709,-0.070312,0.657471,1.067073,0.548781,-1.341463,0
22:16:25.007,0.757324,-0.069092,0.651367,-0.152439,0.701220,-1.310976,0
22:16:25.040,0.757812,-0.075684,0.646240,0.091463,0.975610,-1.554878,0
22:16:25.049,0.756836,-0.076172,0.651367,-0.121951,0.945122,-1.280488,0
22:16:26.520,0.769287,-0.092285,0.638184,-0.548781,0.945122,-2.103659,0
22:16:26.554,0.771240,-0.089355,0.645020,-0.853659,1.768293,-1.951220,0
22:16:26.585,0.769043,-0.085449,0.646973,-1.585366,2.378049,-2.256098,0
22:16:26.619,0.767090,-0.067627,0.648438,-3.750000,3.506098,-3.445122,0
22:16:26.679,0.760254,-0.062744,0.643066,-4.237805,4.420732,-4.695122,0
22:16:26.715,0.765625,-0.057129,0.646973,-5.701220,5.152439,-5.792683,0
22:16:26.731,0.761719,-0.060791,0.646973,-7.225610,4.176829,-7.317073,0
22:16:26.776,0.753662,-0.075684,0.631104,-4.817073,3.353659,-8.231708,0
22:16:26.783,0.752930,-0.077148,0.633545,-2.865854,2.103659,-8.750000,0
22:16:26.808,0.748779,-0.075684,0.631104,-2.652439,0.975610,-8.780488,0
22:16:26.867,0.757568,-0.091553,0.630615,-0.853659,-0.091463,-8.475610,0
22:16:26.874,0.761963,-0.104980,0.636719,0.548781,-1.036585,-7.134147,0
22:16:26.908,0.754883,-0.106689,0.635254,1.128049,-1.189024,-5.792683,0
22:16:26.949,0.746094,-0.107666,0.629150,2.195122,-1.798781,-4.603659,0
22:16:26.984,0.750977,-0.112793,0.635010,2.500000,-2.804878,-4.237805,0
22:16:27.014,0.748779,-0.097900,0.640869,3.750000,-4.573171,-3.109756,0
22:16:27.049,0.754395,-0.103760,0.621582,11.128049,-3.871951,-2.317073,0
22:16:27.081,0.788086,-0.075684,0.614014,5.518293,1.128049,-2.012195,0
22:16:27.115,0.771240,-0.047607,0.650146,-8.140244,-1.554878,-8.841464,0
22:16:27.155,0.740479,-0.054932,0.633545,-1.158537,-1.554878,-9.451220,0
22:16:27.189,0.739502,-0.108643,0.600342,11.067074,-0.548781,-5.152439,0
22:16:27.225,0.746094,-0.001465,0.652588,-14.054878,-2.621951,-12.621951,0
22:16:27.282,0.814941,-0.069092,0.675049,-5.609756,2.164634,-7.286585,0
22:16:27.289,0.855469,-0.139648,0.677002,3.445122,6.006098,1.585366,0
22:16:27.318,0.830322,-0.086426,0.660645,-1.158537,8.048780,3.689024,0
22:16:27.354,0.780762,-0.024170,0.606445,-5.548780,6.707317,3.384146,0
22:16:27.387,0.778076,-0.025635,0.575928,-1.036585,6.097561,2.500000,0
22:16:27.395,0.761719,-0.064697,0.540771,8.231708,4.969512,0.792683,0
22:16:27.444,0.746338,-0.040771,0.617188,3.262195,1.219512,0.304878,0
22:16:27.480,0.746338,-0.053467,0.616455,-0.182927,-1.768293,-3.353659,0
22:16:27.513,0.744873,-0.081543,0.615234,3.414634,-2.926829,-1.829268,0
22:16:27.547,0.755371,-0.094727,0.656738,5.548780,-1.798781,0.365854,0
22:16:27.556,0.752197,-0.079102,0.651611,3.689024,-1.310976,-0.945122,0
22:16:27.608,0.754639,-0.065918,0.664307,1.646342,-0.640244,-1.402439,0
22:16:27.642,0.765869,-0.076416,0.662842,2.317073,1.219512,0.030488,0
22:16:27.681,0.767090,-0.069580,0.649170,1.585366,2.591464,0.670732,0
22:16:27.714,0.767334,-0.063477,0.654297,-0.914634,2.804878,-0.457317,0
22:16:27.722,0.763184,-0.055664,0.647217,-1.158537,2.774390,-0.609756,0
22:16:27.757,0.763672,-0.065918,0.640869,1.554878,2.469512,0.182927,0
22:16:27.793,0.770020,-0.059814,0.636963,0.701220,1.829268,0.182927,0
22:16:27.820,0.767578,-0.052002,0.633545,0.152439,1.585366,-0.640244,0
22:17:06.248,0.770020,-0.107910,0.629150,-15.945123,82.317078,-31.524391,1
22:17:06.318,0.771240,-0.117676,0.626465,2.987805,1.707317,-1.158537,1
22:17:06.349,0.773682,-0.105957,0.626465,-1.128049,1.585366,-1.280488,1
22:17:06.380,0.766846,-0.109375,0.624023,1.189024,1.890244,-1.341463,1
22:17:06.445,0.762451,-0.112061,0.619385,2.347561,1.615854,-1.189024,1
22:17:06.455,0.764404,-0.104736,0.625977,-0.762195,0.853659,-1.524390,1
22:17:06.502,0.767090,-0.106445,0.620605,0.396341,1.402439,-1.554878,1
22:17:06.541,0.764160,-0.114990,0.618896,1.341463,1.097561,-1.493902,1
22:17:06.553,0.764160,-0.101807,0.628418,-0.304878,0.365854,-1.798781,1
22:17:06.595,0.764404,-0.108887,0.620850,2.530488,0.426829,-1.768293,1
22:17:06.602,0.760498,-0.106445,0.618896,2.164634,-0.152439,-1.768293,1
22:17:06.656,0.763428,-0.098389,0.628174,0.670732,-0.304878,-2.195122,1
22:17:06.690,0.772949,-0.113037,0.621582,2.926829,0.762195,-1.707317,1
22:17:06.701,0.779297,-0.109863,0.633789,0.030488,0.670732,-1.128049,1
22:17:06.737,0.774902,-0.111328,0.633789,2.652439,1.067073,-0.304878,1
22:17:06.770,0.763672,-0.105469,0.620850,4.115854,1.006098,-0.609756,1
22:17:06.822,0.759033,-0.089844,0.619141,0.731707,0.457317,-2.103659,1
22:17:06.854,0.759766,-0.093262,0.618408,4.725610,-0.213415,-2.713415,1
22:17:06.893,0.779785,-0.092285,0.617432,3.475610,0.396341,-1.676829,1
22:17:06.901,0.785400,-0.106445,0.615723,1.707317,0.518293,-0.823171,1
22:17:06.930,0.775879,-0.108398,0.638672,2.804878,-0.182927,-1.036585,1
22:17:06.988,0.759766,-0.103516,0.627686,3.231707,0.548781,-0.548781,1
22:17:07.020,0.769043,-0.111084,0.630615,1.951220,1.646342,-0.274390,1
22:17:07.053,0.766602,-0.108643,0.628174,1.615854,1.920732,0.304878,1
22:17:07.087,0.769775,-0.123047,0.628418,2.439024,1.890244,1.006098,1
22:17:07.102,0.768311,-0.131836,0.617920,5.091464,1.646342,2.256098,1
22:17:07.153,0.765625,-0.133789,0.632324,6.554878,1.676829,3.628049,1
22:17:07.171,0.761963,-0.119141,0.629883,6.798780,1.585366,4.725610,1
22:17:07.199,0.766357,-0.133789,0.623291,11.768293,1.524390,5.945122,1
22:17:07.291,0.765381,-0.124756,0.616455,10.579268,-0.670732,7.286585,1
22:17:07.297,0.760742,-0.105225,0.620605,10.335366,-1.463415,6.310976,1
22:17:07.304,0.753906,-0.090332,0.609131,10.884147,-2.103659,3.810976,1
22:17:07.332,0.750000,-0.068604,0.618652,9.725610,-4.237805,0.030488,1
22:17:07.365,0.760010,-0.065186,0.613770,12.317074,-4.542683,-0.853659,1
22:17:07.398,0.771484,-0.054199,0.594971,9.085366,-2.225610,-2.957317,1
22:17:07.430,0.800537,-0.056396,0.631348,-1.128049,1.890244,-3.506098,1
22:17:07.468,0.791504,-0.059082,0.655518,-6.341464,2.347561,-8.079268,1
22:17:07.477,0.748047,-0.059570,0.667969,-4.207317,2.134146,-9.634147,1
22:17:07.513,0.740479,-0.039795,0.674561,-0.609756,2.530488,-6.615854,1
22:17:07.568,0.779053,-0.091553,0.683838,5.243903,3.109756,-4.085366,1
22:17:07.589,0.777344,-0.093506,0.663574,10.365854,2.591464,-3.689024,1
22:17:07.616,0.807373,-0.090332,0.647705,12.835366,5.243903,1.981707,1
22:17:07.651,0.815674,-0.105957,0.631104,8.536586,7.439024,4.573171,1
22:17:07.687,0.792725,-0.083008,0.625244,0.640244,9.390244,3.445122,1
22:17:07.718,0.768555,-0.061279,0.522705,5.365854,5.945122,0.884146,1
22:17:07.750,0.703857,-0.026123,0.597656,5.640244,3.780488,1.707317,1
22:17:07.783,0.746582,-0.089844,0.630127,4.237805,1.341463,-0.213415,1
22:17:07.847,0.765869,-0.095459,0.631836,8.201220,0.975610,2.530488,1
22:17:07.857,0.764160,-0.078125,0.635742,6.310976,1.341463,3.689024,1
22:17:07.877,0.761230,-0.081299,0.669678,4.939024,2.164634,2.896342,1
22:17:07.920,0.746582,-0.068848,0.664551,1.829268,1.036585,0.609756,1
22:17:07.953,0.742676,-0.042969,0.629883,1.310976,1.524390,-0.640244,1
22:17:08.013,0.751221,-0.057617,0.641113,1.189024,1.859756,-1.067073,1
22:17:08.021,0.766357,-0.064453,0.645264,-0.609756,1.493902,-1.006098,1
22:17:08.050,0.759766,-0.063965,0.642578,-1.250000,1.189024,-1.310976,1
22:17:08.084,0.755615,-0.058350,0.636230,-0.396341,1.097561,-2.042683,1
22:17:09.846,0.766357,-0.083496,0.636475,-0.030488,-0.274390,-2.591464,1
22:17:09.907,0.760498,-0.089600,0.631592,1.402439,-0.121951,-1.829268,1
22:17:09.918,0.758301,-0.086914,0.632812,2.134146,0.000000,-1.676829,1
22:17:09.951,0.759277,-0.081787,0.634277,1.341463,-0.457317,-2.591464,1
22:17:10.017,0.761475,-0.083252,0.640137,1.341463,-0.121951,-2.286585,1
22:17:10.030,0.765625,-0.084961,0.644531,-0.182927,0.762195,-1.646342,1
22:17:10.056,0.766602,-0.089355,0.642090,2.256098,0.670732,-1.493902,1
22:17:10.088,0.761963,-0.090332,0.644287,1.250000,0.762195,-1.006098,1
22:17:10.121,0.761963,-0.088867,0.642822,1.768293,1.890244,-0.457317,1
22:17:10.155,0.758789,-0.081543,0.643555,1.006098,1.737805,-0.518293,1
22:17:10.196,0.763428,-0.096191,0.648438,3.201220,1.981707,-0.274390,1
22:17:10.226,0.765137,-0.098145,0.642822,2.804878,2.195122,0.670732,1
22:17:10.263,0.762939,-0.101318,0.645020,1.676829,2.835366,1.463415,1
22:17:10.291,0.757080,-0.104248,0.639648,1.310976,2.804878,2.195122,1
22:17:10.324,0.752197,-0.104248,0.629150,2.103659,2.256098,2.256098,1
22:17:10.357,0.757324,-0.098633,0.631592,1.951220,1.036585,2.439024,1
22:17:10.395,0.758301,-0.103516,0.635498,3.689024,0.823171,3.384146,1
22:17:10.437,0.756836,-0.101562,0.634033,2.987805,0.640244,4.542683,1
22:17:10.467,0.756104,-0.094727,0.635498,4.603659,0.091463,3.902439,1
22:17:10.501,0.753906,-0.092285,0.642334,5.975610,-0.060976,3.810976,1
22:17:10.534,0.752441,-0.081055,0.640625,4.054878,-0.121951,4.237805,1
22:17:10.542,0.753174,-0.088623,0.637207,7.317073,-0.884146,3.445122,1
22:17:10.593,0.757324,-0.087402,0.635986,6.128049,-2.378049,2.469512,1
22:17:10.627,0.753174,-0.087402,0.649170,6.615854,-2.682927,2.957317,1
22:17:10.635,0.750244,-0.090576,0.632812,10.457317,-2.743902,2.225610,1
22:17:10.691,0.754883,-0.079102,0.631592,10.060976,-3.384146,1.310976,1
22:17:10.722,0.764893,-0.076660,0.646729,11.890244,-4.207317,1.280488,1
22:17:10.755,0.778564,-0.076904,0.589844,9.786586,-1.920732,-0.792683,1
22:17:10.800,0.783691,-0.070557,0.632812,5.487805,0.609756,-1.493902,1
22:17:10.813,0.757080,-0.039062,0.640869,-5.518293,0.182927,-6.524390,1
22:17:10.837,0.742676,-0.037842,0.652100,-4.664634,-1.585366,-9.420732,1
22:17:10.877,0.767090,-0.079102,0.657227,-4.481708,-1.250000,-8.323171,1
22:17:10.912,0.780762,-0.044189,0.630859,-11.463415,-0.914634,-9.481708,1
22:17:10.944,0.781006,-0.082031,0.653809,-14.542684,-0.274390,-8.170732,1
22:17:10.977,0.819580,-0.118652,0.640625,-6.463415,2.530488,-2.378049,1
22:17:11.015,0.797607,-0.138184,0.617920,2.408537,3.170732,0.457317,1
22:17:11.048,0.765625,-0.078857,0.616455,2.530488,3.445122,0.487805,1
22:17:11.079,0.782715,-0.089355,0.646240,0.914634,3.810976,1.371951,1
22:17:11.112,0.779541,-0.064941,0.638428,1.341463,4.054878,-0.335366,1
22:17:11.148,0.783936,-0.064453,0.604248,13.719513,3.932927,1.341463,1
22:17:11.182,0.753418,-0.091309,0.619873,13.475610,3.719512,4.115854,1
22:17:11.215,0.742676,-0.065186,0.623779,5.274390,1.890244,1.554878,1
22:17:11.247,0.755371,-0.075928,0.614014,3.231707,0.152439,-1.798781,1
22:17:11.262,0.764160,-0.079102,0.615967,5.396342,1.067073,-0.762195,1
22:17:11.319,0.768311,-0.094971,0.640137,4.695122,1.554878,0.823171,1
22:17:11.352,0.762451,-0.077637,0.647217,0.182927,0.823171,-0.487805,1
22:17:11.392,0.755371,-0.075928,0.648926,0.731707,1.585366,-0.975610,1
22:17:11.403,0.761719,-0.072510,0.661621,-0.426829,3.140244,-0.731707,1
22:17:11.432,0.760254,-0.079834,0.649658,-1.676829,3.079268,-0.853659,1
22:17:13.223,0.760742,-0.079590,0.626221,1.219512,0.792683,-1.615854,1
22:17:13.245,0.764160,-0.083496,0.639160,0.152439,0.457317,-1.768293,1
22:17:13.274,0.761963,-0.077148,0.635254,1.371951,0.213415,-1.646342,1
22:17:13.360,0.763672,-0.076172,0.638916,1.707317,0.030488,-1.920732,1
22:17:13.372,0.762207,-0.069824,0.642090,0.701220,0.000000,-2.225610,1
22:17:13.390,0.763916,-0.079102,0.640137,2.286585,0.396341,-1.829268,1
22:17:13.429,0.760742,-0.072021,0.644287,0.518293,0.152439,-1.981707,1
22:17:13.461,0.763428,-0.085205,0.647949,1.463415,0.945122,-1.524390,1
22:17:13.494,0.763672,-0.090332,0.649414,0.884146,1.920732,-0.213415,1
22:17:13.531,0.762695,-0.095703,0.645996,1.768293,2.500000,0.335366,1
22:17:13.540,0.766113,-0.098877,0.646240,2.347561,2.804878,1.554878,1
22:17:13.680,0.757812,-0.109619,0.650391,3.048780,3.902439,2.896342,1
22:17:13.685,0.757812,-0.102051,0.647705,2.439024,4.024390,3.963415,1
22:17:13.692,0.757324,-0.101318,0.640625,3.018293,4.054878,4.634147,1
22:17:13.706,0.750732,-0.102539,0.646240,4.085366,3.506098,5.609756,1
22:17:13.711,0.754150,-0.095947,0.639160,7.164634,2.500000,6.158537,1
22:17:13.739,0.751465,-0.098145,0.631836,6.280488,0.914634,5.731708,1
22:17:13.773,0.741211,-0.077637,0.635742,5.792683,-0.518293,4.939024,1
22:17:13.806,0.746094,-0.082520,0.629639,7.591464,-1.036585,4.420732,1
22:17:13.838,0.748047,-0.070312,0.631592,7.347561,-2.317073,3.414634,1
22:17:13.871,0.755127,-0.071777,0.634766,10.914635,-3.567073,2.865854,1
22:17:13.904,0.755371,-0.065918,0.626953,10.182927,-4.695122,1.829268,1
22:17:13.943,0.754883,-0.059570,0.618408,9.512196,-6.280488,0.000000,1
22:17:13.976,0.751953,-0.050781,0.635254,12.286586,-7.774390,-0.365854,1
22:17:14.009,0.759521,-0.065918,0.611328,15.701220,-5.518293,-1.036585,1
22:17:14.041,0.805908,-0.074951,0.631592,11.250000,-1.615854,-2.713415,1
22:17:14.054,0.775146,-0.006348,0.668945,-2.957317,1.250000,-5.396342,1
22:17:14.115,0.746338,-0.111816,0.675537,13.353659,2.286585,0.182927,1
22:17:14.125,0.756348,-0.100830,0.628662,16.250000,2.500000,0.274390,1
22:17:14.176,0.770264,-0.086426,0.689697,3.719512,-0.243902,-2.042683,1
22:17:14.210,0.782471,0.005859,0.653076,-0.457317,2.195122,-4.725610,1
22:17:14.241,0.791504,-0.056885,0.625244,2.957317,3.231707,-1.798781,1
22:17:14.274,0.803711,-0.063232,0.621582,0.457317,3.170732,0.487805,1
22:17:14.314,0.790771,-0.056641,0.642334,-4.054878,4.176829,0.518293,1
22:17:14.321,0.779053,-0.048584,0.615479,-1.768293,5.000000,-0.274390,1
22:17:14.375,0.766113,-0.048584,0.613525,3.902439,6.463415,3.932927,1
22:17:14.410,0.726074,-0.059570,0.641357,5.030488,3.963415,3.475610,1
22:17:14.443,0.730957,-0.056396,0.614502,4.115854,0.000000,0.457317,1
22:17:14.452,0.742188,-0.064941,0.632568,1.402439,-1.432927,-0.670732,1
22:17:14.487,0.759033,-0.068848,0.656738,0.091463,-0.518293,-0.640244,1
22:17:14.526,0.761963,-0.062012,0.637451,2.774390,0.487805,-0.091463,1
22:17:14.560,0.764648,-0.055908,0.653076,-1.585366,1.341463,-0.213415,1
22:17:14.593,0.762939,-0.043945,0.660889,-1.463415,1.920732,-0.243902,1
22:17:14.637,0.764404,-0.053223,0.648926,-2.713415,2.378049,-0.579268,1
22:17:14.673,0.762451,-0.053467,0.653564,-2.621951,2.500000,-0.640244,1
22:17:14.704,0.758789,-0.056885,0.655518,-1.859756,1.280488,-1.463415,1
22:17:14.736,0.755371,-0.045898,0.638672,-1.341463,1.189024,-2.286585,1
22:17:16.544,0.759277,-0.077637,0.643066,-1.341463,0.731707,-2.774390,1
22:17:16.580,0.760254,-0.086426,0.635254,0.274390,0.670732,-2.195122,1
22:17:16.603,0.759277,-0.082520,0.646240,0.243902,0.457317,-2.042683,1
22:17:16.648,0.754150,-0.076660,0.640869,0.091463,0.487805,-1.951220,1
22:17:16.683,0.758545,-0.075195,0.638916,-0.091463,0.457317,-2.073171,1
22:17:16.715,0.758545,-0.072021,0.642090,-1.189024,0.518293,-2.134146,1
22:17:16.748,0.759521,-0.071533,0.640869,-0.731707,0.091463,-2.103659,1
22:17:16.779,0.761475,-0.075684,0.643555,1.280488,0.213415,-2.073171,1
22:17:16.813,0.759277,-0.070557,0.643555,-0.243902,0.518293,-2.195122,1
22:17:16.853,0.760986,-0.073975,0.649658,1.493902,0.670732,-1.829268,1
22:17:16.860,0.763916,-0.078369,0.653809,2.134146,1.402439,-1.189024,1
22:17:16.921,0.762451,-0.082031,0.647949,0.609756,1.524390,-1.219512,1
22:17:16.947,0.758545,-0.092529,0.647705,3.079268,0.670732,-0.548781,1
22:17:16.980,0.753906,-0.099121,0.643311,2.835366,0.884146,0.548781,1
22:17:17.015,0.753418,-0.096436,0.644043,3.292683,1.707317,1.829268,1
22:17:17.046,0.759521,-0.107422,0.645264,5.884147,1.859756,3.201220,1
22:17:17.054,0.763184,-0.098389,0.646973,4.908537,1.768293,4.359756,1
22:17:17.087,0.760742,-0.102051,0.648926,6.554878,2.103659,5.792683,1
22:17:17.144,0.755127,-0.095703,0.644775,5.548780,2.408537,5.975610,1
22:17:17.158,0.754395,-0.080078,0.647217,4.817073,1.798781,5.914634,1
22:17:17.191,0.747070,-0.087158,0.640381,7.591464,0.792683,5.884147,1
22:17:17.229,0.744141,-0.076416,0.636230,6.981708,-0.030488,5.365854,1
22:17:17.269,0.747803,-0.077881,0.632324,11.310976,-1.006098,5.243903,1
22:17:17.296,0.753906,-0.083984,0.636475,13.567074,-2.164634,5.396342,1
22:17:17.341,0.752930,-0.067383,0.633545,12.896341,-3.048780,4.542683,1
22:17:17.349,0.750244,-0.056885,0.644775,12.012196,-3.780488,2.286585,1
22:17:17.396,0.745850,-0.046143,0.629395,10.945122,-4.481708,-2.256098,1
22:17:17.437,0.749268,-0.042969,0.628662,16.189024,-4.878049,-4.054878,1
22:17:17.447,0.780273,-0.010498,0.596436,12.469513,-1.493902,1.341463,1
22:17:17.500,0.804443,-0.067383,0.652344,-10.365854,0.487805,-6.097561,1
22:17:17.528,0.763428,0.030273,0.673584,-23.323172,0.762195,-9.451220,1
22:17:17.561,0.697998,-0.043945,0.638428,-5.701220,-2.500000,-9.817074,1
22:17:17.595,0.750977,-0.060791,0.622559,-3.170732,-0.518293,-7.439024,1
22:17:17.631,0.816895,-0.054199,0.706055,-10.853659,2.469512,-4.603659,1
22:17:17.640,0.806641,-0.107910,0.676025,-3.963415,3.963415,-1.280488,1
22:17:17.671,0.800293,-0.104004,0.639893,2.439024,4.237805,1.951220,1
22:17:17.709,0.785645,-0.077393,0.641846,-2.621951,6.097561,2.987805,1
22:17:17.741,0.777344,-0.061523,0.623779,5.365854,7.195122,3.201220,1
22:17:17.774,0.766846,-0.079102,0.575195,21.524391,5.670732,2.317073,1
22:17:17.812,0.742432,-0.037109,0.635254,13.719513,3.993902,4.054878,1
22:17:17.848,0.737061,-0.071289,0.609863,9.695122,0.792683,2.134146,1
22:17:17.879,0.739990,-0.069092,0.605225,7.500000,-0.396341,-0.884146,1
22:17:17.912,0.759766,-0.061523,0.656494,1.463415,0.274390,-1.524390,1
22:17:17.945,0.762939,-0.054688,0.664551,-1.310976,0.640244,-0.823171,1
22:17:17.978,0.753662,-0.058350,0.654297,2.926829,1.189024,0.030488,1
22:17:18.012,0.745361,-0.050049,0.661621,0.365854,1.737805,-0.243902,1
22:17:18.052,0.745605,-0.046875,0.659424,-2.926829,1.646342,-1.768293,1
22:17:18.065,0.756104,-0.058350,0.659424,-2.073171,2.073171,-1.615854,1
22:17:18.109,0.756592,-0.066650,0.652588,-2.926829,1.737805,-1.646342,1
22:17:18.152,0.757568,-0.049805,0.654297,-1.036585,1.524390,-2.042683,1
22:17:18.159,0.757812,-0.061768,0.639648,0.914634,1.707317,-2.042683,1
22:17:18.209,0.759033,-0.053955,0.643799,0.213415,2.012195,-1.310976,1
22:17:18.221,0.762695,-0.079102,0.649170,-1.219512,2.195122,-1.219512,1
22:17:20.127,0.762451,-0.082275,0.638428,0.365854,1.036585,-1.189024,1
22:17:20.169,0.760986,-0.080566,0.638428,0.396341,1.067073,-1.524390,1
22:17:20.182,0.755859,-0.082764,0.635742,1.676829,0.884146,-1.890244,1
22:17:20.208,0.753906,-0.065918,0.641602,0.030488,0.701220,-2.317073,1
22:17:20.245,0.759033,-0.077393,0.636475,1.615854,0.487805,-2.530488,1
22:17:20.278,0.763672,-0.071289,0.640869,1.036585,0.030488,-2.530488,1
22:17:20.312,0.766113,-0.067627,0.639893,0.701220,0.304878,-2.286585,1
22:17:20.347,0.764648,-0.083496,0.641602,2.987805,0.762195,-1.707317,1
22:17:20.387,0.766357,-0.077637,0.647461,0.579268,1.341463,-1.280488,1
22:17:20.416,0.762207,-0.093750,0.655273,3.018293,1.524390,-0.396341,1
22:17:20.449,0.757568,-0.101074,0.652344,3.536585,2.012195,1.310976,1
22:17:20.482,0.752441,-0.104980,0.648926,6.463415,1.981707,2.896342,1
22:17:20.515,0.751465,-0.102539,0.645264,5.426829,1.676829,3.231707,1
22:17:20.552,0.754639,-0.092285,0.638672,4.908537,1.920732,2.774390,1
22:17:20.587,0.751953,-0.081543,0.641113,4.207317,1.707317,3.231707,1
22:17:20.621,0.762207,-0.089111,0.639160,6.585366,0.213415,4.359756,1
22:17:20.649,0.760254,-0.091309,0.641846,7.652439,0.000000,5.548780,1
22:17:20.681,0.753662,-0.080322,0.641602,8.292683,0.487805,5.762195,1
22:17:20.724,0.750977,-0.078369,0.641846,9.146341,-0.304878,5.213415,1
22:17:20.747,0.753906,-0.070312,0.639160,8.414635,-0.487805,4.146341,1
22:17:20.760,0.757568,-0.066406,0.637451,9.542684,-0.701220,3.810976,1
22:17:20.793,0.755615,-0.068848,0.633301,9.298780,-1.981707,3.323171,1
22:17:20.850,0.754639,-0.063721,0.625977,10.670732,-3.353659,2.225610,1
22:17:20.882,0.753174,-0.060547,0.617432,12.591464,-4.878049,0.243902,1
22:17:20.918,0.750732,-0.043213,0.615479,10.152439,-6.798780,-0.609756,1
22:17:20.957,0.762207,-0.035889,0.613281,6.128049,-4.085366,-0.823171,1
22:17:20.975,0.806152,-0.061035,0.632812,3.445122,-0.457317,-2.560976,1
22:17:21.012,0.782715,-0.056885,0.671387,0.518293,2.530488,-5.030488,1
22:17:21.048,0.752930,-0.065430,0.675537,0.121951,1.615854,-3.506098,1
22:17:21.066,0.732910,-0.072510,0.660889,8.719512,-2.469512,-3.048780,1
22:17:21.097,0.781006,-0.067139,0.636475,1.341463,-0.609756,-5.701220,1
22:17:21.132,0.793213,-0.023193,0.649414,-5.579268,1.006098,-5.853659,1
22:17:21.168,0.830566,-0.066406,0.636963,-5.548780,3.262195,-1.463415,1
22:17:21.201,0.830078,-0.102051,0.638184,-0.304878,5.182927,1.981707,1
22:17:21.236,0.777100,-0.004395,0.596191,-0.975610,5.731708,0.335366,1
22:17:21.278,0.750244,-0.025879,0.587646,7.500000,5.762195,1.006098,1
22:17:21.301,0.773926,-0.055176,0.667969,8.262196,2.164634,3.506098,1
22:17:21.337,0.748291,-0.024658,0.619385,2.957317,-1.036585,-0.640244,1
22:17:21.375,0.746582,-0.047119,0.634766,3.841464,-0.701220,-1.341463,1
22:17:21.384,0.761719,-0.068604,0.636963,3.871951,1.798781,-0.304878,1
22:17:21.452,0.761230,-0.063965,0.638184,-0.853659,1.585366,-0.609756,1
22:17:21.492,0.760498,-0.061768,0.647705,2.073171,2.286585,-1.067073,1
22:17:21.506,0.764160,-0.042480,0.660889,-4.146341,3.262195,-0.914634,1
22:17:21.538,0.759277,-0.052734,0.650635,-2.439024,3.140244,-0.518293,1
22:17:21.550,0.753174,-0.062256,0.633789,-0.304878,3.048780,-0.731707,1
22:17:21.578,0.751709,-0.049072,0.642578,-1.646342,2.621951,-1.128049,1
22:17:21.633,0.762207,-0.059814,0.654785,-2.195122,2.743902,-0.945122,1
22:17:23.532,0.764893,-0.078369,0.645020,-1.250000,1.310976,-1.341463,1
22:17:23.571,0.763428,-0.071045,0.637939,0.792683,0.884146,-1.585366,1
22:17:23.598,0.761475,-0.070801,0.643799,0.396341,0.304878,-1.554878,1
22:17:23.631,0.762207,-0.069824,0.642090,0.213415,1.067073,-0.518293,1
22:17:23.666,0.761719,-0.080078,0.644531,2.682927,1.615854,-0.335366,1
22:17:23.703,0.763184,-0.075439,0.647705,1.280488,0.975610,-0.335366,1
22:17:23.736,0.762695,-0.105225,0.658691,3.536585,1.402439,1.554878,1
22:17:23.770,0.760010,-0.119629,0.660889,4.085366,3.810976,3.536585,1
22:17:23.801,0.753662,-0.103760,0.656250,2.103659,4.542683,3.993902,1
22:17:23.836,0.751709,-0.099609,0.647949,3.170732,3.993902,4.573171,1
22:17:23.869,0.757324,-0.095947,0.626709,4.939024,3.384146,5.975610,1
22:17:23.906,0.763184,-0.087402,0.629150,4.268293,2.469512,6.219512,1
22:17:23.919,0.759766,-0.082275,0.621338,5.426829,0.518293,6.097561,1
22:17:23.972,0.749756,-0.084473,0.614990,9.481708,-0.975610,6.189024,1
22:17:24.005,0.752686,-0.074219,0.621338,8.140244,-2.469512,5.335366,1
22:17:24.037,0.751953,-0.068604,0.627930,9.298780,-2.835366,3.841464,1
22:17:24.075,0.759033,-0.060547,0.632812,7.926829,-3.445122,2.896342,1
22:17:24.083,0.757812,-0.069824,0.634277,9.024390,-4.481708,2.012195,1
22:17:24.116,0.752686,-0.069824,0.633545,11.829268,-6.067073,0.579268,1
22:17:24.172,0.763428,-0.057617,0.595215,6.189024,-2.896342,-0.396341,1
22:17:24.203,0.787354,-0.063965,0.665283,-2.591464,0.975610,-1.798781,1
22:17:24.223,0.784180,-0.042480,0.673096,-5.945122,-0.792683,-5.304878,1
22:17:24.256,0.730713,-0.080322,0.638672,3.109756,-0.426829,-6.371952,1
22:17:24.291,0.725098,0.010254,0.630127,-4.054878,-0.304878,-10.000000,1
22:17:24.319,0.782227,-0.065918,0.665283,-6.920732,0.000000,-7.286585,1
22:17:24.348,0.813721,-0.128174,0.643311,1.890244,2.378049,-3.048780,1
22:17:24.381,0.829346,-0.105957,0.644775,3.750000,4.268293,1.128049,1
22:17:24.414,0.799561,-0.072754,0.635498,-1.493902,5.182927,2.134146,1
22:17:24.449,0.774658,-0.073975,0.614746,3.292683,5.365854,1.920732,1
22:17:24.483,0.765137,-0.078857,0.597168,12.317074,4.969512,0.914634,1
22:17:24.517,0.771484,-0.042480,0.575195,12.347561,3.506098,1.524390,1
22:17:24.548,0.712402,-0.023193,0.631836,6.829268,0.884146,0.884146,1
22:17:24.582,0.744385,-0.075684,0.618896,4.207317,0.060976,-0.335366,1
22:17:24.615,0.757812,-0.080078,0.636475,3.658537,0.914634,-1.036585,1
22:17:24.652,0.755859,-0.069336,0.648438,2.408537,0.884146,-1.341463,1
22:17:24.690,0.762939,-0.075928,0.646240,3.079268,1.432927,-1.006098,1
22:17:24.698,0.759277,-0.068604,0.639893,0.884146,2.073171,-1.371951,1
22:17:24.749,0.765381,-0.051270,0.653564,-1.310976,2.743902,-1.585366,1
22:17:24.786,0.766357,-0.060059,0.651855,-1.737805,3.109756,-1.097561,1
22:17:24.816,0.761230,-0.059326,0.642822,-2.896342,2.987805,-0.670732,1
22:17:24.874,0.756836,-0.056641,0.651367,-3.506098,2.500000,-1.067073,1
22:17:24.881,0.754150,-0.060059,0.642578,-2.926829,1.890244,-1.280488,1
22:17:24.908,0.757080,-0.059326,0.629150,-1.676829,2.469512,-0.975610,1
22:17:26.872,0.763672,-0.089600,0.629639,-0.121951,0.274390,-2.256098,1
22:17:26.895,0.762451,-0.083740,0.634033,-0.975610,-0.213415,-2.408537,1
22:17:26.917,0.757568,-0.085693,0.634766,1.829268,-0.518293,-2.530488,1
22:17:26.957,0.754883,-0.084961,0.634277,-0.274390,-0.457317,-3.079268,1
22:17:26.988,0.763184,-0.079346,0.639648,0.121951,-0.091463,-2.835366,1
22:17:27.026,0.773926,-0.103760,0.645508,3.902439,0.335366,-1.554878,1
22:17:27.071,0.769043,-0.096436,0.646484,-0.701220,-0.304878,-1.493902,1
22:17:27.102,0.758789,-0.117676,0.652832,4.542683,0.579268,-0.731707,1
22:17:27.142,0.759033,-0.123779,0.648438,3.963415,2.042683,1.371951,1
22:17:27.152,0.761475,-0.112793,0.652832,1.371951,2.408537,2.347561,1
22:17:27.198,0.758057,-0.116455,0.641357,4.268293,2.469512,2.987805,1
22:17:27.235,0.759277,-0.114990,0.645020,4.359756,2.408537,3.841464,1
22:17:27.244,0.760986,-0.106201,0.634766,2.713415,3.140244,5.000000,1
22:17:27.292,0.760498,-0.108643,0.630127,6.371952,2.378049,5.853659,1
22:17:27.325,0.757568,-0.102539,0.630127,6.493903,1.829268,6.310976,1
22:17:27.356,0.751221,-0.092773,0.625977,6.707317,0.304878,6.402439,1
22:17:27.396,0.760010,-0.095215,0.629883,11.097561,-0.823171,6.341464,1
22:17:27.406,0.751221,-0.094727,0.627197,16.371952,-1.371951,6.371952,1
22:17:27.440,0.750244,-0.085938,0.625977,14.054878,-2.774390,5.518293,1
22:17:27.476,0.755127,-0.055664,0.628906,10.335366,-3.353659,4.024390,1
22:17:27.507,0.754883,-0.081543,0.626953,15.396342,-3.048780,1.859756,1
22:17:27.539,0.750488,-0.053467,0.630859,10.975610,-5.701220,0.426829,1
22:17:27.581,0.758545,-0.068115,0.618652,16.737804,-6.798780,-0.426829,1
22:17:27.613,0.774170,-0.068848,0.610596,12.896341,-3.262195,0.091463,1
22:17:27.647,0.804199,-0.061035,0.631104,-9.695122,1.219512,-2.804878,1
22:17:27.679,0.776855,-0.014404,0.687500,-31.371952,1.432927,-12.591464,1
22:17:27.712,0.708496,-0.004150,0.624268,-20.579269,-2.865854,-18.201220,1
22:17:27.744,0.730957,-0.046875,0.662354,-13.140244,-1.707317,-13.689025,1
22:17:27.781,0.833008,-0.075439,0.708008,-11.554878,-0.182927,-7.652439,1
22:17:27.818,0.802246,-0.086182,0.655518,-7.012195,1.493902,-7.621952,1
22:17:27.855,0.809570,-0.095215,0.632568,2.743902,4.085366,-1.006098,1
22:17:27.864,0.801514,-0.143311,0.593994,4.878049,4.329268,1.890244,1
22:17:27.922,0.781006,-0.095703,0.597656,3.262195,4.146341,1.859756,1
22:17:27.956,0.770752,-0.085449,0.590332,6.646342,2.103659,0.823171,1
22:17:27.991,0.787842,-0.099854,0.552002,9.603659,2.256098,2.560976,1
22:17:28.002,0.804443,-0.079346,0.601318,7.286585,1.219512,1.798781,1
22:17:28.030,0.738037,-0.035889,0.609375,10.670732,-1.250000,0.182927,1
22:17:28.086,0.759277,-0.054688,0.621094,5.579268,-0.243902,-1.615854,1
22:17:28.122,0.775391,-0.079834,0.662354,0.884146,0.518293,-0.792683,1
22:17:28.136,0.774902,-0.076660,0.682129,-0.914634,0.975610,-0.670732,1
22:17:28.182,0.759033,-0.070312,0.664307,0.792683,1.951220,-1.128049,1
22:17:28.189,0.753906,-0.077393,0.648438,0.426829,3.170732,-1.158537,1
22:17:28.219,0.762451,-0.072510,0.647217,-6.158537,3.628049,-1.768293,1
22:17:28.278,0.767334,-0.083252,0.642334,-0.152439,3.262195,-1.768293,1
22:17:28.289,0.762939,-0.079102,0.628906,-1.859756,2.713415,-1.585366,1
22:17:28.335,0.763428,-0.072510,0.629395,-6.402439,2.073171,-2.225610,1
22:17:28.373,0.770996,-0.087402,0.622803,-4.054878,2.256098,-1.463415,1
22:17:28.388,0.770996,-0.085693,0.620605,-3.353659,1.707317,-0.975610,1
22:17:28.413,0.772949,-0.086914,0.624023,-4.878049,1.250000,-0.304878,1
22:17:30.084,0.763428,-0.092529,0.632812,-0.121951,1.341463,-1.707317,1
22:17:30.124,0.762207,-0.093018,0.630371,0.457317,0.914634,-1.798781,1
22:17:30.157,0.759277,-0.089844,0.633545,-0.945122,0.609756,-2.164634,1
22:17:30.170,0.760742,-0.089111,0.631836,1.097561,0.396341,-2.134146,1
22:17:30.232,0.764404,-0.089355,0.636963,0.396341,-0.060976,-2.225610,1
22:17:30.263,0.764648,-0.084961,0.635742,1.067073,0.335366,-2.317073,1
22:17:30.297,0.767578,-0.091797,0.635986,2.012195,0.396341,-2.042683,1
22:17:30.313,0.767334,-0.094971,0.638184,2.073171,0.701220,-1.280488,1
22:17:30.350,0.763428,-0.095947,0.642334,0.762195,1.554878,-0.731707,1
22:17:30.386,0.762695,-0.098145,0.643311,1.585366,1.250000,-0.823171,1
22:17:30.415,0.761230,-0.113037,0.647949,1.646342,0.792683,0.182927,1
22:17:30.454,0.761230,-0.116211,0.643555,1.554878,1.707317,1.676829,1
22:17:30.463,0.758789,-0.122070,0.651367,5.701220,2.835366,4.054878,1
22:17:30.522,0.761230,-0.121826,0.636230,8.201220,3.353659,4.786585,1
22:17:30.558,0.764648,-0.105957,0.641357,4.969512,2.987805,4.725610,1
22:17:30.566,0.753418,-0.094971,0.635010,5.640244,1.676829,5.121951,1
22:17:30.614,0.749023,-0.106934,0.629395,8.902439,1.128049,5.121951,1
22:17:30.648,0.751709,-0.089355,0.631592,5.609756,0.152439,4.512195,1
22:17:30.676,0.747803,-0.091797,0.635010,7.408537,-1.097561,4.481708,1
22:17:30.716,0.752197,-0.095703,0.635742,9.420732,-0.823171,3.871951,1
22:17:30.728,0.754150,-0.078369,0.643066,7.500000,-1.158537,3.262195,1
22:17:30.759,0.755127,-0.077881,0.635498,9.298780,-1.585366,1.981707,1
22:17:30.793,0.754883,-0.080811,0.632324,11.280488,-2.408537,0.548781,1
22:17:30.829,0.753174,-0.064941,0.631592,10.457317,-3.628049,-0.518293,1
22:17:30.855,0.752441,-0.074951,0.621094,14.329268,-5.091464,-1.250000,1
22:17:30.913,0.753906,-0.072510,0.614502,15.487805,-5.914634,-1.585366,1
22:17:30.922,0.768066,-0.063721,0.596924,2.926829,-1.402439,-3.658537,1
22:17:30.953,0.800293,-0.061523,0.663574,-13.323171,3.048780,-3.628049,1
22:17:31.009,0.787842,-0.087891,0.701172,-5.060976,2.652439,-6.768293,1
22:17:31.041,0.716309,-0.080078,0.621826,-4.451220,-0.884146,-9.298780,1
22:17:31.076,0.733154,-0.033447,0.616699,1.250000,-2.347561,-7.774390,1
22:17:31.112,0.797852,-0.046631,0.636230,-1.768293,-1.951220,-7.591464,1
22:17:31.124,0.790283,-0.044678,0.595703,2.500000,-2.012195,-8.231708,1
22:17:31.161,0.826660,-0.077637,0.623047,0.396341,1.737805,-0.975610,1
22:17:31.193,0.805664,-0.104736,0.647461,4.115854,4.695122,2.652439,1
22:17:31.230,0.784424,-0.072266,0.661133,3.506098,5.457317,3.079268,1
22:17:31.271,0.774414,-0.052979,0.636719,7.500000,4.695122,1.128049,1
22:17:31.312,0.775635,-0.046631,0.574219,11.859756,3.841464,4.329268,1
22:17:31.322,0.731934,-0.045898,0.627930,10.000000,0.701220,1.524390,1
22:17:31.350,0.747803,-0.056152,0.611816,5.731708,-0.853659,-0.762195,1
22:17:31.408,0.771484,-0.055664,0.622070,3.445122,0.304878,-0.914634,1
22:17:31.443,0.765381,-0.064453,0.649658,1.951220,1.859756,-0.182927,1
22:17:31.450,0.762695,-0.062744,0.676025,-0.121951,2.774390,0.396341,1
22:17:31.503,0.756592,-0.073975,0.665527,-0.030488,2.530488,0.121951,1
22:17:31.510,0.749512,-0.062500,0.638672,0.091463,2.591464,-0.975610,1
22:17:31.536,0.747314,-0.049072,0.641602,-1.189024,2.682927,-2.073171,1
22:17:31.594,0.759521,-0.061768,0.646729,-1.189024,2.560976,-2.195122,1
22:17:31.601,0.763184,-0.067139,0.641602,-0.975610,2.530488,-1.707317,1
22:17:31.657,0.767822,-0.069580,0.637939,-0.670732,2.591464,-1.250000,1
22:17:31.695,0.767822,-0.069824,0.637207,0.274390,2.347561,-1.280488,1
22:17:31.707,0.766602,-0.061768,0.638184,-0.609756,2.378049,-1.067073,1
22:17:33.390,0.769043,-0.094482,0.624756,1.798781,-0.091463,-2.652439,1
22:17:33.432,0.768799,-0.088623,0.636230,-0.121951,0.091463,-2.347561,1
22:17:33.458,0.763916,-0.090332,0.627197,1.920732,0.823171,-2.042683,1
22:17:33.490,0.769043,-0.096680,0.624268,1.646342,0.975610,-1.859756,1
22:17:33.550,0.771240,-0.093506,0.634277,1.768293,1.036585,-1.676829,1
22:17:33.566,0.771973,-0.097168,0.637939,1.798781,1.615854,-1.097561,1
22:17:33.598,0.772949,-0.102051,0.637695,2.652439,2.500000,-0.091463,1
22:17:33.635,0.767334,-0.113281,0.643311,4.573171,3.384146,1.829268,1
22:17:33.669,0.771973,-0.112549,0.642090,6.737805,4.756098,3.902439,1
22:17:33.710,0.760986,-0.107178,0.644775,2.591464,4.207317,3.871951,1
22:17:33.735,0.747314,-0.114990,0.635254,5.640244,3.628049,3.932927,1
22:17:33.766,0.749023,-0.111816,0.631592,6.676829,2.500000,4.390244,1
22:17:33.797,0.752441,-0.104004,0.619385,6.371952,1.006098,4.847561,1
22:17:33.836,0.758057,-0.109619,0.619873,9.939025,-0.060976,5.548780,1
22:17:33.873,0.759033,-0.096191,0.620605,9.359756,-0.792683,5.731708,1
22:17:33.880,0.760254,-0.083984,0.626709,8.810976,-1.615854,5.243903,1
22:17:33.935,0.768066,-0.087891,0.625977,12.103659,-1.798781,4.786585,1
22:17:33.970,0.762207,-0.076904,0.624023,13.353659,-2.652439,3.536585,1
22:17:33.983,0.757568,-0.050537,0.623291,9.939025,-4.573171,0.670732,1
22:17:34.043,0.754395,-0.061768,0.612305,11.737805,-5.701220,-1.493902,1
22:17:34.051,0.761963,-0.047607,0.623535,8.567074,-3.689024,-1.006098,1
22:17:34.075,0.790039,-0.050537,0.671387,-5.457317,4.268293,-2.743902,1
22:17:34.113,0.790771,-0.088867,0.689453,6.280488,5.945122,-2.469512,1
22:17:34.141,0.749023,-0.052002,0.657959,1.432927,4.329268,-7.134147,1
22:17:34.197,0.698242,-0.015869,0.653320,-4.451220,4.054878,-8.292683,1
22:17:34.237,0.789795,-0.166016,0.640625,18.506098,4.237805,-3.567073,1
22:17:34.246,0.802246,-0.053223,0.687988,10.396341,4.634147,-2.743902,1
22:17:34.274,0.798096,-0.070312,0.671631,3.201220,5.487805,-0.518293,1
22:17:34.330,0.794189,-0.060303,0.624268,-1.951220,4.908537,0.914634,1
22:17:34.364,0.784912,-0.081787,0.609375,-2.103659,4.817073,1.219512,1
22:17:34.397,0.776855,-0.045410,0.588135,-3.536585,4.695122,-0.609756,1
22:17:34.415,0.776123,-0.059814,0.588623,2.713415,5.487805,1.798781,1
22:17:34.448,0.776367,-0.095459,0.606445,7.225610,1.920732,1.585366,1
22:17:34.479,0.722656,-0.014160,0.614990,7.560976,-3.079268,0.518293,1
22:17:34.511,0.738281,-0.044922,0.652100,5.091464,-2.926829,-0.975610,1
22:17:34.546,0.744873,-0.058838,0.674072,0.853659,-1.097561,-0.213415,1
22:17:34.575,0.753906,-0.082520,0.702881,-0.945122,0.609756,2.286585,1
22:17:34.610,0.747559,-0.081543,0.683350,0.579268,1.310976,1.737805,1
22:17:34.649,0.735352,-0.077393,0.647949,0.487805,1.798781,-0.243902,1
22:17:34.656,0.741455,-0.060303,0.657227,-0.274390,2.378049,-0.884146,1
22:17:34.712,0.749023,-0.069824,0.663086,-0.487805,1.707317,-0.640244,1
22:17:34.744,0.755371,-0.072266,0.646973,-0.884146,1.981707,-1.097561,1
22:17:34.778,0.759521,-0.083252,0.644043,-2.530488,2.560976,-1.432927,1
22:17:34.819,0.753418,-0.071289,0.645508,-1.371951,2.286585,-1.829268,1
22:17:34.828,0.753174,-0.063477,0.640869,-1.341463,1.310976,-2.439024,1
22:17:36.516,0.756104,-0.086914,0.643311,0.030488,0.182927,-3.170732,1
22:17:36.563,0.764160,-0.087891,0.637207,0.945122,0.945122,-2.957317,1
22:17:36.591,0.758789,-0.091309,0.637207,0.457317,0.548781,-2.530488,1
22:17:36.629,0.756836,-0.086670,0.640381,-0.060976,-0.335366,-2.987805,1
22:17:36.664,0.756836,-0.090088,0.637939,2.286585,0.060976,-2.530488,1
22:17:36.699,0.758057,-0.094238,0.650635,2.042683,0.670732,-2.073171,1
22:17:36.732,0.761963,-0.094238,0.650879,0.060976,1.707317,-0.701220,1
22:17:36.768,0.761230,-0.107422,0.647217,3.018293,2.012195,0.670732,1
22:17:36.800,0.757568,-0.109863,0.646484,2.134146,2.012195,1.493902,1
22:17:36.832,0.751953,-0.107178,0.647705,2.621951,2.073171,2.652439,1
22:17:36.851,0.754395,-0.114502,0.637695,4.420732,2.073171,3.841464,1
22:17:36.879,0.753662,-0.109863,0.637939,5.000000,1.585366,5.030488,1
22:17:36.936,0.758057,-0.101318,0.638672,4.054878,1.158537,5.762195,1
22:17:36.976,0.758789,-0.092529,0.633057,4.054878,1.067073,5.243903,1
22:17:36.988,0.758545,-0.086426,0.637695,3.658537,0.670732,4.786585,1
22:17:37.036,0.752930,-0.088867,0.639404,4.512195,-0.365854,4.634147,1
22:17:37.068,0.756104,-0.084717,0.645020,4.024390,-0.213415,4.603659,1
22:17:37.104,0.754639,-0.083252,0.634766,4.024390,-0.457317,3.475610,1
22:17:37.111,0.753662,-0.070068,0.637695,6.067073,-1.402439,2.408537,1
22:17:37.164,0.752197,-0.067627,0.629883,4.817073,-3.292683,0.975610,1
22:17:37.198,0.755859,-0.072510,0.617188,9.603659,-4.756098,-0.060976,1
22:17:37.206,0.747803,-0.080078,0.618408,8.993902,-7.865854,0.213415,1
22:17:37.255,0.754395,-0.062012,0.595703,3.810976,-5.945122,-1.707317,1
22:17:37.271,0.803955,-0.068115,0.663574,3.445122,1.493902,-1.737805,1
22:17:37.319,0.790283,-0.085693,0.695312,-12.225610,3.414634,-7.256098,1
22:17:37.353,0.744873,-0.096924,0.654297,-6.128049,-0.121951,-5.914634,1
22:17:37.362,0.754395,-0.094482,0.602295,-8.079268,-5.426829,-10.091464,1
22:17:37.395,0.725342,0.005615,0.535156,-16.463415,-8.170732,-16.920732,1
22:17:37.451,0.795166,-0.079346,0.649658,-13.597561,-4.329268,-13.262196,1
22:17:37.461,0.840576,-0.151367,0.651611,-6.737805,0.792683,-5.457317,1
22:17:37.495,0.823242,-0.132568,0.664795,0.182927,3.445122,-0.731707,1
22:17:37.555,0.780762,-0.083740,0.644775,-1.646342,4.756098,0.304878,1
22:17:37.562,0.789551,-0.107422,0.657227,1.646342,6.219512,2.560976,1
22:17:37.617,0.785645,-0.094727,0.644531,3.567073,6.250000,2.591464,1
22:17:37.670,0.778320,-0.078613,0.573486,10.914635,5.152439,3.871951,1
22:17:37.679,0.777100,-0.094482,0.621338,13.140244,3.902439,3.932927,1
22:17:37.691,0.744385,-0.074951,0.622559,9.725610,0.853659,1.981707,1
22:17:37.752,0.756836,-0.086670,0.593750,10.518293,0.518293,1.615854,1
22:17:37.760,0.768555,-0.105469,0.607422,7.347561,1.067073,0.640244,1
22:17:37.796,0.764160,-0.095703,0.646973,1.524390,2.500000,0.426829,1
22:17:37.850,0.761230,-0.099609,0.660645,1.371951,3.414634,0.792683,1
22:17:37.881,0.760742,-0.094971,0.650146,0.030488,3.353659,1.128049,1
22:17:37.914,0.761475,-0.086182,0.643066,0.152439,3.871951,0.792683,1
22:17:37.949,0.753418,-0.069580,0.642822,0.457317,2.560976,-0.365854,1
22:17:37.958,0.757568,-0.065186,0.630859,-1.554878,1.707317,-1.250000,1
22:17:37.992,0.762451,-0.085449,0.642090,-1.585366,1.890244,-1.280488,1
22:17:38.046,0.760498,-0.076904,0.643066,-1.920732,2.256098,-1.128049,1
22:17:38.078,0.761719,-0.078125,0.635498,-3.384146,2.469512,-1.615854,1
22:17:39.896,0.754639,-0.080078,0.635986,-0.853659,0.091463,-2.713415,1
22:17:39.936,0.752441,-0.071533,0.642334,0.426829,-0.274390,-3.170732,1
22:17:39.969,0.760498,-0.082520,0.640381,1.006098,-0.182927,-2.896342,1
22:17:40.009,0.764404,-0.078613,0.645996,0.213415,0.579268,-2.317073,1
22:17:40.041,0.761719,-0.084717,0.643799,0.121951,0.365854,-1.737805,1
22:17:40.078,0.760498,-0.110107,0.654053,3.018293,-0.152439,-0.792683,1
22:17:40.117,0.752686,-0.123291,0.660645,2.621951,1.067073,0.762195,1
22:17:40.148,0.751709,-0.114746,0.663574,1.189024,2.591464,2.591464,1
22:17:40.189,0.748047,-0.114014,0.645752,3.048780,3.140244,3.109756,1
22:17:40.231,0.751465,-0.107666,0.644775,2.164634,2.408537,3.567073,1
22:17:40.238,0.757568,-0.095947,0.638184,2.865854,2.012195,4.634147,1
22:17:40.270,0.760742,-0.102051,0.643311,5.121951,2.347561,6.036585,1
22:17:40.306,0.756348,-0.094482,0.642334,5.091464,2.012195,6.768293,1
22:17:40.341,0.753662,-0.090332,0.640381,4.908537,1.707317,6.432927,1
22:17:40.371,0.750977,-0.081299,0.634033,5.731708,0.365854,4.237805,1
22:17:40.409,0.741943,-0.064941,0.634277,7.439024,-1.585366,2.652439,1
22:17:40.438,0.746338,-0.068848,0.629150,6.371952,-2.652439,2.439024,1
22:17:40.472,0.753662,-0.085449,0.631348,10.975610,-3.231707,1.798781,1
22:17:40.514,0.750977,-0.073486,0.626953,12.774390,-4.176829,1.128049,1
22:17:40.526,0.753418,-0.068604,0.626953,5.579268,-3.963415,-0.548781,1
22:17:40.573,0.774902,-0.061279,0.648682,-1.554878,-0.884146,-3.231707,1
22:17:40.606,0.787598,-0.079102,0.649902,7.530488,1.036585,-1.890244,1
22:17:40.638,0.768555,-0.074951,0.662354,-6.310976,2.774390,-4.695122,1
22:17:40.676,0.731934,-0.051025,0.656494,-0.121951,1.981707,-7.134147,1
22:17:40.688,0.715576,-0.078613,0.670410,2.012195,-1.493902,-9.359756,1
22:17:40.739,0.760010,-0.054443,0.635254,3.567073,-2.073171,-6.615854,1
22:17:40.773,0.800049,-0.056885,0.660156,2.042683,-0.579268,-5.792683,1
22:17:40.803,0.812500,-0.076660,0.642334,-1.371951,2.195122,-3.750000,1
22:17:40.836,0.818115,-0.105713,0.652344,-2.774390,5.304878,1.219512,1
22:17:40.875,0.796387,-0.065186,0.630615,-8.810976,4.756098,0.396341,1
22:17:40.885,0.772461,-0.060547,0.567139,0.853659,4.359756,-0.823171,1
22:17:40.914,0.779053,-0.086670,0.609131,6.890244,3.841464,3.810976,1
22:17:40.952,0.753418,-0.077148,0.635742,13.231708,2.073171,7.012195,1
22:17:40.983,0.759766,-0.097656,0.633789,11.585366,2.652439,5.274390,1
22:17:41.016,0.745850,-0.079102,0.668945,2.835366,3.628049,2.073171,1
22:17:41.053,0.732178,-0.077393,0.694824,1.128049,5.121951,1.676829,1
22:17:41.088,0.730225,-0.078857,0.685059,0.884146,4.451220,1.402439,1
22:17:41.124,0.726318,-0.084961,0.658447,-0.365854,3.384146,-0.518293,1
22:17:41.156,0.733643,-0.075439,0.652100,-0.243902,2.652439,-1.493902,1
22:17:41.192,0.744141,-0.076172,0.645996,0.304878,1.768293,-2.042683,1
22:17:41.218,0.750488,-0.084961,0.650146,-0.945122,0.945122,-1.707317,1
22:17:41.256,0.753174,-0.086182,0.638428,-1.097561,1.615854,-1.554878,1
22:17:41.292,0.753906,-0.077148,0.641846,-0.548781,1.371951,-1.493902,1
22:17:41.301,0.756104,-0.076904,0.644775,-1.859756,0.701220,-1.890244,1
22:17:41.350,0.751221,-0.074707,0.641113,-2.408537,0.060976,-2.530488,1
22:17:43.039,0.750244,-0.080566,0.642090,-0.731707,0.640244,-2.591464,1
22:17:43.071,0.753662,-0.091309,0.649658,0.762195,0.426829,-2.378049,1
22:17:43.099,0.754395,-0.093262,0.649658,0.670732,0.335366,-1.920732,1
22:17:43.134,0.755371,-0.084229,0.644287,0.914634,0.945122,-1.798781,1
22:17:43.171,0.757324,-0.088379,0.645752,0.853659,0.975610,-1.432927,1
22:17:43.232,0.757080,-0.095459,0.649902,2.103659,1.067073,-0.762195,1
22:17:43.240,0.758789,-0.108643,0.648438,1.859756,1.341463,0.457317,1
22:17:43.265,0.755371,-0.110352,0.652344,-0.182927,2.621951,1.676829,1
22:17:43.297,0.754150,-0.122314,0.652100,0.792683,3.079268,3.506098,1
22:17:43.330,0.748779,-0.131592,0.627197,4.603659,2.103659,5.579268,1
22:17:43.364,0.751953,-0.123535,0.645264,6.646342,1.676829,6.493903,1
22:17:43.415,0.752930,-0.099609,0.639648,3.201220,1.554878,6.128049,1
22:17:43.424,0.749268,-0.095215,0.645752,5.243903,1.219512,5.792683,1
22:17:43.477,0.747559,-0.096924,0.641113,4.786585,0.000000,5.548780,1
22:17:43.514,0.739014,-0.088623,0.640625,5.823171,-1.067073,4.939024,1
22:17:43.546,0.745361,-0.089600,0.637451,5.060976,-1.585366,4.298780,1
22:17:43.580,0.749268,-0.083252,0.638916,5.426829,-2.164634,3.506098,1
22:17:43.609,0.752686,-0.092041,0.635254,8.353659,-3.018293,3.079268,1
22:17:43.618,0.747314,-0.094238,0.633545,10.335366,-4.237805,1.829268,1
22:17:43.665,0.745117,-0.074219,0.631348,7.621952,-5.304878,-0.518293,1
22:17:43.715,0.747070,-0.072021,0.625977,9.329268,-4.725610,-3.628049,1
22:17:43.743,0.775879,-0.044922,0.621338,8.109756,-2.804878,-2.439024,1
22:17:43.750,0.784912,-0.076904,0.674316,-8.963415,2.286585,-2.317073,1
22:17:43.807,0.770508,-0.071777,0.666504,-10.121951,3.414634,-8.292683,1
22:17:43.821,0.731201,-0.044678,0.651611,-14.939025,1.280488,-10.304878,1
22:17:43.853,0.760498,-0.099609,0.614258,-4.817073,-4.695122,-9.573171,1
22:17:43.909,0.738281,-0.076660,0.605225,0.579268,-4.969512,-8.353659,1
22:17:43.918,0.767334,-0.074707,0.692383,-3.353659,-1.463415,-7.896342,1
22:17:43.942,0.813721,-0.112549,0.706299,-4.268293,5.304878,-2.103659,1
22:17:44.005,0.823486,-0.155029,0.652832,0.792683,7.012195,2.987805,1
22:17:44.012,0.791992,-0.110840,0.624023,-1.280488,6.646342,3.750000,1
22:17:44.037,0.768066,-0.078857,0.603271,-0.579268,6.341464,1.951220,1
22:17:44.070,0.767822,-0.066650,0.613281,4.420732,5.945122,1.737805,1
22:17:44.106,0.770020,-0.083252,0.582031,9.969512,4.969512,7.530488,1
22:17:44.136,0.740723,-0.126221,0.635986,13.536586,0.670732,6.006098,1
22:17:44.176,0.726562,-0.104980,0.611816,4.756098,-2.317073,-2.804878,1
22:17:44.218,0.738770,-0.098389,0.646973,6.036585,-2.347561,-2.286585,1
22:17:44.249,0.754150,-0.118652,0.673340,5.426829,-1.067073,0.945122,1
22:17:44.282,0.756348,-0.108398,0.651367,3.323171,0.030488,1.128049,1
22:17:44.315,0.753174,-0.111328,0.654053,4.268293,0.518293,0.762195,1
22:17:44.349,0.750000,-0.095459,0.649414,1.585366,1.189024,0.335366,1
22:17:44.382,0.758789,-0.091553,0.642578,0.396341,1.036585,-0.091463,1
22:17:44.420,0.758057,-0.094727,0.648682,0.579268,1.676829,-0.091463,1
22:17:44.452,0.756104,-0.084229,0.643311,0.640244,1.676829,-0.091463,1
22:17:44.486,0.762451,-0.081543,0.642334,-0.853659,2.256098,-0.243902,1
22:17:44.519,0.767822,-0.087158,0.645996,-3.475610,2.439024,-0.701220,1
22:17:44.552,0.762451,-0.092041,0.647949,-1.463415,2.774390,-0.701220,1
22:17:44.564,0.760986,-0.087646,0.638916,-2.164634,2.804878,-1.006098,1
22:17:46.219,0.759033,-0.107178,0.633301,-0.091463,1.493902,-1.707317,1
22:17:46.284,0.764160,-0.101562,0.635742,0.060976,0.823171,-1.615854,1
22:17:46.294,0.764893,-0.098877,0.634033,-0.030488,0.914634,-1.981707,1
22:17:46.325,0.764893,-0.099854,0.633301,-0.609756,1.097561,-2.134146,1
22:17:46.367,0.762939,-0.103271,0.642578,1.341463,0.701220,-1.829268,1
22:17:46.379,0.762695,-0.108154,0.635010,-0.060976,1.250000,-1.676829,1
22:17:46.434,0.761230,-0.101318,0.635498,0.548781,1.402439,-1.707317,1
22:17:46.468,0.759277,-0.108887,0.642578,1.189024,1.371951,-1.310976,1
22:17:46.498,0.760010,-0.110596,0.637207,1.341463,1.585366,-1.554878,1
22:17:46.533,0.757812,-0.105957,0.639404,1.128049,1.615854,-1.006098,1
22:17:46.549,0.758057,-0.109131,0.635498,2.896342,1.890244,-0.182927,1
22:17:46.599,0.757812,-0.118896,0.635986,3.079268,1.646342,0.914634,1
22:17:46.634,0.759521,-0.118408,0.635742,2.469512,2.286585,1.737805,1
22:17:46.665,0.763916,-0.126709,0.642822,2.896342,2.347561,2.286585,1
22:17:46.696,0.757080,-0.133301,0.644287,2.987805,1.707317,3.871951,1
22:17:46.731,0.750244,-0.137207,0.640625,5.762195,2.256098,6.219512,1
22:17:46.746,0.750732,-0.145264,0.639893,8.506098,2.042683,8.109756,1
22:17:46.776,0.752686,-0.135498,0.634033,9.451220,1.310976,8.689025,1
22:17:46.830,0.753906,-0.128174,0.637695,9.420732,1.280488,8.658537,1
22:17:46.867,0.746826,-0.115234,0.632324,8.170732,-0.152439,8.048780,1
22:17:46.900,0.744385,-0.112061,0.633545,7.652439,-1.310976,6.554878,1
22:17:46.933,0.735107,-0.097412,0.626709,9.969512,-2.713415,4.756098,1
22:17:46.940,0.742432,-0.096191,0.631592,15.579268,-4.115854,2.621951,1
22:17:46.974,0.744385,-0.078125,0.619873,15.213415,-5.975610,-0.975610,1
22:17:47.006,0.741699,-0.064453,0.634521,9.024390,-5.762195,-6.067073,1
22:17:47.063,0.793701,0.016113,0.593994,-6.890244,-0.030488,-7.378049,1
22:17:47.095,0.819092,-0.085205,0.724609,-19.756098,0.548781,-10.121951,1
22:17:47.131,0.730957,-0.067383,0.647217,-13.597561,-1.097561,-13.506098,1
22:17:47.140,0.714844,-0.054199,0.623291,-5.640244,-1.920732,-10.487805,1
22:17:47.170,0.787842,-0.121826,0.613281,-2.682927,-5.152439,-9.634147,1
22:17:47.227,0.792725,-0.098633,0.599365,0.365854,-3.262195,-9.481708,1
22:17:47.262,0.851318,-0.139648,0.639648,7.865854,1.768293,-0.914634,1
22:17:47.270,0.829834,-0.149658,0.650879,9.512196,5.243903,5.640244,1
22:17:47.322,0.787354,-0.084717,0.633789,9.542684,5.457317,5.823171,1
22:17:47.329,0.761719,-0.054932,0.632812,10.121951,6.646342,5.701220,1
22:17:47.360,0.766602,-0.083496,0.629883,9.146341,8.689025,6.128049,1
22:17:47.418,0.739258,-0.076172,0.639648,4.664634,4.695122,5.335366,1
22:17:47.425,0.736816,-0.057129,0.603027,7.804878,1.829268,2.195122,1
22:17:47.478,0.745850,-0.106934,0.605957,5.945122,2.682927,-0.182927,1
22:17:47.514,0.755127,-0.092529,0.665039,-0.304878,4.817073,0.335366,1
22:17:47.525,0.752197,-0.099365,0.662598,-0.701220,3.689024,-0.030488,1
22:17:47.561,0.744873,-0.101562,0.652832,0.579268,2.439024,-0.792683,1
22:17:47.610,0.737793,-0.092285,0.641846,-1.615854,2.347561,-1.920732,1
22:17:47.643,0.746338,-0.089600,0.638672,-2.012195,1.737805,-2.347561,1
22:17:47.675,0.750000,-0.098633,0.637939,1.920732,1.219512,-1.890244,1
22:17:47.709,0.758057,-0.092285,0.641846,-1.493902,1.493902,-1.890244,1
22:17:47.722,0.758789,-0.092773,0.636475,-1.585366,1.280488,-1.737805,1
22:17:47.773,0.755371,-0.097900,0.644043,-0.152439,0.945122,-1.707317,1
22:17:47.788,0.752441,-0.088379,0.635498,-1.371951,0.670732,-2.134146,1
22:17:49.518,0.759277,-0.108887,0.631592,-0.426829,0.030488,-2.073171,1
22:17:49.549,0.760010,-0.101318,0.636230,-0.243902,0.091463,-2.195122,1
22:17:49.578,0.761230,-0.105957,0.636230,0.091463,0.609756,-1.859756,1
22:17:49.617,0.763428,-0.105225,0.638428,0.213415,0.884146,-1.798781,1
22:17:49.650,0.762451,-0.114258,0.647217,0.243902,0.762195,-1.250000,1
22:17:49.687,0.764160,-0.122314,0.639160,0.823171,1.036585,-0.518293,1
22:17:49.720,0.759766,-0.133057,0.647217,1.036585,1.707317,0.884146,1
22:17:49.751,0.765625,-0.142578,0.647217,2.439024,2.713415,2.378049,1
22:17:49.785,0.756836,-0.133789,0.643066,2.926829,3.109756,3.871951,1
22:17:49.814,0.756836,-0.122803,0.642578,3.170732,3.689024,5.000000,1
22:17:49.861,0.755615,-0.125244,0.640625,3.810976,3.689024,5.121951,1
22:17:49.874,0.753906,-0.118896,0.631592,2.164634,2.560976,4.939024,1
22:17:49.898,0.749023,-0.118164,0.627930,8.810976,0.091463,5.182927,1
22:17:49.930,0.746582,-0.117432,0.629395,9.481708,-0.609756,5.213415,1
22:17:49.963,0.747559,-0.104736,0.626953,9.786586,-1.128049,4.451220,1
22:17:49.999,0.752197,-0.116943,0.632568,10.853659,-1.798781,4.298780,1
22:17:50.032,0.755859,-0.109619,0.641113,10.823171,-2.926829,4.237805,1
22:17:50.069,0.754639,-0.110840,0.633301,13.932927,-2.743902,3.871951,1
22:17:50.101,0.749756,-0.102295,0.631104,15.091464,-3.963415,2.774390,1
22:17:50.135,0.740723,-0.085693,0.621338,13.414635,-5.396342,-0.670732,1
22:17:50.167,0.762695,-0.049561,0.596924,5.060976,-4.054878,-2.103659,1
22:17:50.202,0.800537,-0.097412,0.641357,7.652439,0.792683,-4.908537,1
22:17:50.243,0.772461,-0.105469,0.682617,10.121951,1.493902,-2.682927,1
22:17:50.281,0.761230,-0.140381,0.710693,17.225611,-1.402439,-2.835366,1
22:17:50.305,0.767578,-0.108398,0.606445,21.890244,-1.432927,-2.012195,1
22:17:50.337,0.740479,-0.002441,0.670410,3.780488,-0.091463,-7.865854,1
22:17:50.377,0.812988,-0.065674,0.675537,0.335366,3.445122,-3.871951,1
22:17:50.403,0.834961,-0.139160,0.663574,0.548781,5.762195,3.932927,1
22:17:50.441,0.792480,-0.062988,0.629883,-6.219512,5.762195,2.957317,1
22:17:50.473,0.759277,-0.007568,0.573730,-6.890244,6.158537,0.518293,1
22:17:50.483,0.764648,-0.066895,0.593262,6.036585,5.701220,0.884146,1
22:17:50.534,0.783936,-0.104980,0.645996,3.780488,3.902439,0.945122,1
22:17:50.567,0.742432,-0.014404,0.670654,0.762195,3.079268,2.042683,1
22:17:50.598,0.746094,-0.110596,0.615723,7.225610,2.896342,-0.060976,1
22:17:50.633,0.751953,-0.068848,0.672119,-1.981707,2.652439,-0.762195,1
22:17:50.645,0.748779,-0.068115,0.680420,-4.085366,0.945122,-0.975610,1
22:17:50.678,0.740234,-0.075928,0.642334,-0.274390,0.884146,-0.457317,1
22:17:50.735,0.739746,-0.079590,0.648926,-0.914634,0.640244,-1.006098,1
22:17:50.746,0.749756,-0.077148,0.635742,-0.060976,1.219512,-1.219512,1
22:17:50.777,0.753662,-0.089844,0.644043,-1.737805,0.640244,-1.250000,1
22:17:50.834,0.754883,-0.077637,0.638428,-4.329268,1.036585,-1.432927,1
22:17:50.842,0.757080,-0.101562,0.644531,-3.231707,1.432927,-1.890244,1
22:17:50.899,0.756104,-0.086670,0.648926,-3.810976,1.128049,-2.530488,1
22:17:50.932,0.752686,-0.087402,0.645508,-3.323171,0.579268,-2.530488,1
22:17:50.963,0.757080,-0.085205,0.645752,-4.573171,0.731707,-2.957317,1
22:17:52.738,0.758057,-0.099854,0.629150,-0.152439,0.884146,-2.073171,1
22:17:52.772,0.760986,-0.102051,0.636963,0.792683,0.518293,-1.981707,1
22:17:52.796,0.761719,-0.099609,0.635986,0.091463,1.036585,-1.798781,1
22:17:52.833,0.765381,-0.098877,0.631348,1.250000,0.579268,-2.286585,1
22:17:52.873,0.767822,-0.113037,0.643066,2.713415,0.945122,-1.250000,1
22:17:52.907,0.765381,-0.105957,0.637695,0.762195,1.463415,-0.243902,1
22:17:52.937,0.763672,-0.115723,0.640869,2.012195,2.896342,1.371951,1
22:17:52.970,0.766113,-0.125488,0.645264,1.615854,2.865854,1.951220,1
22:17:53.031,0.764404,-0.118652,0.645264,3.445122,3.353659,2.469512,1
22:17:53.039,0.751953,-0.126465,0.649658,2.591464,3.140244,3.475610,1
22:17:53.082,0.748291,-0.123047,0.640869,3.201220,2.957317,3.750000,1
22:17:53.097,0.742920,-0.120850,0.645996,5.945122,1.829268,4.237805,1
22:17:53.139,0.747559,-0.122070,0.638184,7.012195,1.189024,4.756098,1
22:17:53.177,0.751709,-0.111816,0.637207,6.189024,0.884146,3.902439,1
22:17:53.190,0.753418,-0.106445,0.629639,7.164634,0.335366,3.353659,1
22:17:53.239,0.756348,-0.110840,0.636963,7.042683,-0.274390,3.841464,1
22:17:53.272,0.755127,-0.112305,0.633057,7.621952,-1.006098,4.603659,1
22:17:53.304,0.756348,-0.107422,0.636230,9.298780,-1.463415,4.878049,1
22:17:53.338,0.752686,-0.109863,0.630127,11.615854,-1.707317,4.756098,1
22:17:53.373,0.751709,-0.097168,0.637695,9.359756,-2.652439,4.603659,1
22:17:53.386,0.756348,-0.102051,0.644775,10.426829,-3.231707,4.054878,1
22:17:53.438,0.750732,-0.103760,0.623779,10.701220,-4.512195,0.701220,1
22:17:53.454,0.739990,-0.081543,0.630615,8.658537,-6.524390,-1.646342,1
22:17:53.486,0.748779,-0.072021,0.628662,14.390244,-7.530488,-1.798781,1
22:17:53.521,0.765381,-0.094482,0.567383,20.182928,-3.780488,-0.884146,1
22:17:53.555,0.797363,-0.056885,0.649902,0.701220,-1.859756,-1.676829,1
22:17:53.604,0.779785,-0.062012,0.680420,-5.548780,-1.432927,-6.006098,1
22:17:53.623,0.742432,-0.104492,0.625488,11.493903,-3.445122,-8.353659,1
22:17:53.654,0.763916,-0.043457,0.612793,2.804878,-6.158537,-9.054878,1
22:17:53.687,0.779297,-0.035645,0.641357,-2.987805,-4.451220,-8.109756,1
22:17:53.727,0.812500,-0.082275,0.652100,-6.737805,1.493902,-4.054878,1
22:17:53.764,0.832520,-0.102783,0.666016,-5.609756,4.390244,0.731707,1
22:17:53.800,0.798096,-0.061523,0.659912,-7.408537,7.256098,0.914634,1
22:17:53.808,0.775879,-0.018066,0.638428,-10.457317,8.384147,-1.310976,1
22:17:53.855,0.768799,-0.087158,0.599854,6.615854,6.981708,0.975610,1
22:17:53.897,0.774658,-0.120117,0.632568,12.134147,3.048780,1.737805,1
22:17:53.908,0.750488,-0.042480,0.613037,3.384146,1.524390,0.304878,1
22:17:53.959,0.775879,-0.110107,0.607666,6.707317,3.506098,1.432927,1
22:17:53.970,0.774902,-0.108154,0.647217,2.987805,3.292683,2.835366,1
22:17:54.019,0.765625,-0.092041,0.651611,0.487805,1.920732,1.615854,1
22:17:54.053,0.748291,-0.078857,0.627441,-0.823171,2.225610,-0.152439,1
22:17:54.060,0.741455,-0.072998,0.620361,-1.310976,2.286585,-1.219512,1
22:17:54.093,0.751709,-0.093262,0.640381,-1.371951,1.585366,-2.652439,1
22:17:54.154,0.755615,-0.079590,0.637939,-2.591464,1.646342,-2.439024,1
22:17:54.269,0.767822,-0.083496,0.641846,-1.341463,1.798781,-2.256098,1
22:17:54.282,0.771729,-0.084961,0.638428,-2.987805,1.676829,-1.859756,1
22:17:54.288,0.766602,-0.085449,0.640869,-4.695122,1.585366,-1.981707,1
22:17:54.292,0.758301,-0.083496,0.642090,-0.670732,1.737805,-2.073171,1
22:17:54.313,0.758301,-0.083008,0.635742,-1.554878,1.402439,-2.439024,1
22:17:54.341,0.765381,-0.086182,0.640137,-2.103659,1.920732,-2.317073,1
22:17:54.376,0.761230,-0.100098,0.641357,-0.792683,2.408537,-1.890244,1
22:17:55.950,0.766846,-0.102539,0.639160,0.152439,-0.396341,-3.628049,1
22:17:55.991,0.764893,-0.102539,0.636719,0.213415,0.457317,-2.926829,1
22:17:56.020,0.760010,-0.104492,0.637207,0.426829,0.731707,-2.743902,1
22:17:56.055,0.763184,-0.101318,0.635742,1.097561,0.762195,-2.682927,1
22:17:56.090,0.772217,-0.103271,0.636963,-1.310976,1.371951,-2.164634,1
22:17:56.127,0.770020,-0.106689,0.632324,0.274390,2.256098,-0.884146,1
22:17:56.165,0.768311,-0.128662,0.630127,2.408537,2.103659,0.640244,1
22:17:56.194,0.771240,-0.129883,0.644775,2.317073,2.713415,1.981707,1
22:17:56.226,0.769043,-0.141846,0.636963,4.664634,3.993902,4.268293,1
22:17:56.259,0.760986,-0.134277,0.634033,4.603659,3.841464,6.219512,1
22:17:56.295,0.755615,-0.139404,0.635010,7.804878,3.109756,7.682927,1
22:17:56.345,0.753906,-0.134766,0.629395,8.567074,2.164634,8.048780,1
22:17:56.353,0.751221,-0.119385,0.630859,9.024390,1.006098,7.987805,1
22:17:56.403,0.746338,-0.112549,0.630859,7.621952,0.030488,7.347561,1
22:17:56.411,0.743652,-0.100586,0.627930,6.128049,-0.579268,5.945122,1
22:17:56.463,0.745361,-0.092529,0.628662,5.609756,-1.859756,4.695122,1
22:17:56.495,0.759277,-0.102051,0.629395,7.987805,-2.012195,4.237805,1
22:17:56.505,0.763428,-0.096191,0.632324,8.140244,-2.195122,4.420732,1
22:17:56.560,0.762939,-0.091064,0.638428,7.012195,-2.591464,2.987805,1
22:17:56.593,0.756836,-0.091064,0.635498,8.506098,-2.835366,0.945122,1
22:17:56.626,0.750488,-0.071777,0.635010,5.060976,-3.506098,-0.731707,1
22:17:56.660,0.749023,-0.090820,0.634033,9.390244,-4.695122,-1.707317,1
22:17:56.694,0.753418,-0.109619,0.615723,12.317074,-6.189024,-3.658537,1
22:17:56.701,0.743896,-0.071289,0.618164,6.219512,-7.164634,-5.243903,1
22:17:56.735,0.780518,-0.046631,0.579346,1.493902,0.000000,-5.030488,1
22:17:56.792,0.797119,-0.064209,0.600342,-6.463415,-0.579268,-7.256098,1
22:17:56.824,0.761963,-0.072510,0.605957,-6.310976,-5.213415,-12.042684,1
22:17:56.874,0.757080,-0.056885,0.614258,1.341463,-4.207317,-13.018293,1
22:17:56.882,0.812256,-0.051758,0.649414,-6.219512,-2.591464,-10.030488,1
22:17:56.911,0.786621,-0.105713,0.681396,-1.036585,-1.341463,-7.256098,1
22:17:56.943,0.802002,-0.150146,0.677979,2.103659,2.439024,-0.670732,1
22:17:56.978,0.813477,-0.109619,0.642090,1.036585,4.603659,2.530488,1
22:17:57.011,0.790039,-0.089111,0.613770,-1.585366,5.060976,2.256098,1
22:17:57.040,0.787598,-0.046143,0.583252,-4.146341,4.878049,-0.396341,1
22:17:57.077,0.778076,-0.048828,0.574951,-1.006098,6.981708,3.292683,1
22:17:57.115,0.751953,-0.100098,0.590820,6.829268,3.231707,1.189024,1
22:17:57.123,0.746338,-0.140137,0.565674,14.786586,0.091463,0.670732,1
22:17:57.183,0.789795,-0.089111,0.627441,4.024390,-0.243902,0.365854,1
22:17:57.219,0.786865,-0.112793,0.645752,3.445122,1.158537,1.585366,1
22:17:57.228,0.776611,-0.115967,0.647461,3.902439,2.073171,2.804878,1
22:17:57.278,0.757812,-0.079102,0.643066,-3.262195,2.347561,0.213415,1
22:17:57.285,0.752686,-0.075439,0.632568,-2.164634,2.530488,-1.524390,1
22:17:57.339,0.759277,-0.087402,0.638672,-1.951220,3.048780,-1.310976,1
22:17:57.378,0.766846,-0.083496,0.630859,-3.018293,3.109756,-2.286585,1
22:17:57.406,0.769775,-0.079834,0.636230,-1.829268,2.134146,-2.835366,1
22:17:57.440,0.769531,-0.090332,0.629395,-0.396341,1.981707,-1.951220,1
22:17:57.474,0.772949,-0.090576,0.620117,-0.975610,2.256098,-1.250000,1
22:17:57.483,0.773682,-0.097656,0.622070,-0.884146,2.743902,-0.670732,1
22:17:57.539,0.773193,-0.097656,0.627197,-1.768293,2.164634,-0.609756,1
22:17:57.552,0.770508,-0.095703,0.624268,-1.676829,2.317073,-0.762195,1
22:17:57.589,0.767090,-0.105469,0.622314,2.103659,2.042683,0.000000,1
22:17:57.618,0.762207,-0.096924,0.623535,-0.548781,0.945122,-0.365854,1
22:17:57.652,0.759277,-0.089111,0.623535,-0.426829,0.030488,-1.158537,1
22:17:59.247,0.766846,-0.115967,0.624268,-0.518293,0.274390,-4.176829,1
22:17:59.275,0.770508,-0.116943,0.624023,0.457317,0.487805,-3.750000,1
22:17:59.309,0.766846,-0.118164,0.627930,-0.365854,0.884146,-3.140244,1
22:17:59.344,0.768799,-0.124512,0.623779,2.195122,1.402439,-2.225610,1
22:17:59.376,0.764404,-0.119873,0.629150,-0.426829,1.128049,-2.134146,1
22:17:59.430,0.766113,-0.125977,0.629395,1.219512,1.341463,-1.432927,1
22:17:59.441,0.767090,-0.139648,0.630371,1.920732,1.981707,-0.091463,1
22:17:59.474,0.761719,-0.135010,0.628174,1.493902,1.920732,0.853659,1
22:17:59.531,0.762939,-0.135986,0.627197,1.585366,2.469512,1.676829,1
22:17:59.564,0.761230,-0.143066,0.623047,4.847561,1.737805,2.835366,1
22:17:59.573,0.765625,-0.139648,0.619873,2.743902,0.945122,3.810976,1
22:17:59.623,0.768799,-0.128906,0.623535,3.932927,1.402439,4.817073,1
22:17:59.662,0.762939,-0.141113,0.627441,7.896342,2.042683,6.402439,1
22:17:59.673,0.762695,-0.136475,0.622803,5.335366,1.006098,6.737805,1
22:17:59.719,0.760986,-0.120850,0.618408,4.756098,-0.579268,5.884147,1
22:17:59.728,0.755859,-0.111084,0.626953,8.262196,-1.554878,6.158537,1
22:17:59.756,0.758301,-0.108643,0.623047,7.530488,-2.896342,4.878049,1
22:17:59.816,0.769043,-0.117188,0.617676,10.335366,-3.231707,4.969512,1
22:17:59.824,0.770264,-0.122803,0.624512,10.670732,-1.981707,5.091464,1
22:17:59.880,0.769775,-0.100586,0.638184,5.121951,-1.768293,2.865854,1
22:17:59.912,0.766602,-0.108887,0.624268,8.932927,-1.463415,1.554878,1
22:17:59.944,0.762451,-0.110596,0.618408,12.256098,-1.859756,1.768293,1
22:17:59.976,0.766602,-0.102539,0.613037,8.292683,-3.871951,2.591464,1
22:18:00.030,0.775635,-0.129150,0.620850,5.762195,-0.701220,0.640244,1
22:18:00.051,0.788818,-0.097900,0.621582,2.469512,3.018293,-2.195122,1
22:18:00.074,0.782715,-0.101318,0.635498,-2.804878,3.414634,-2.042683,1
22:18:00.090,0.775635,-0.114014,0.645752,-8.689025,5.914634,-6.798780,1
22:18:00.117,0.745850,-0.106689,0.659912,-10.060976,4.817073,-7.042683,1
22:18:00.175,0.733643,-0.104248,0.660645,-11.554878,1.859756,-7.164634,1
22:18:00.209,0.789062,-0.113525,0.650391,-8.018292,1.493902,-5.945122,1
22:18:00.219,0.777588,-0.104492,0.611084,-1.707317,1.402439,-5.609756,1
