Time_stamp,Ax,Ay,Az,Gx,Gy,Gz,Label
11:29:38.387,0.790771,-0.200928,0.576172,-16.189024,81.676834,-30.945122,1
11:29:38.456,0.792725,-0.198975,0.593750,-0.792683,1.554878,-0.365854,1
11:29:38.488,0.784912,-0.204590,0.579102,2.560976,1.676829,-0.274390,1
11:29:38.523,0.787842,-0.191650,0.571777,-1.250000,2.378049,-0.731707,1
11:29:38.562,0.790771,-0.198730,0.572510,-0.274390,1.798781,-1.006098,1
11:29:38.593,0.780029,-0.197510,0.565918,1.676829,0.457317,-1.189024,1
11:29:38.628,0.786133,-0.195312,0.568359,-0.243902,0.701220,-1.524390,1
11:29:38.658,0.786377,-0.196045,0.570557,1.158537,0.579268,-1.615854,1
11:29:38.689,0.789307,-0.195557,0.571289,1.310976,0.457317,-1.371951,1
11:29:38.723,0.789551,-0.190186,0.570557,0.762195,0.548781,-1.463415,1
11:29:38.760,0.793945,-0.197510,0.566650,2.530488,0.518293,-0.701220,1
11:29:38.798,0.786133,-0.191162,0.566650,0.945122,0.579268,-0.945122,1
11:29:38.830,0.785156,-0.193848,0.569092,3.170732,-0.670732,-1.463415,1
11:29:38.861,0.782715,-0.189941,0.569336,2.957317,-0.975610,-1.219512,1
11:29:38.894,0.782715,-0.189697,0.580566,3.201220,-0.579268,-1.158537,1
11:29:38.911,0.791748,-0.202148,0.576660,4.024390,0.213415,-1.280488,1
11:29:38.942,0.794434,-0.188965,0.575928,3.048780,0.640244,-1.585366,1
11:29:38.979,0.791504,-0.183105,0.575195,2.957317,0.457317,-1.067073,1
11:29:39.013,0.789551,-0.206787,0.568359,5.396342,-0.091463,-1.676829,1
11:29:39.045,0.785400,-0.171387,0.552002,2.682927,-0.853659,-2.530488,1
11:29:39.077,0.790527,-0.162598,0.558350,1.554878,-0.335366,-2.560976,1
11:29:39.111,0.797363,-0.199219,0.561523,6.036585,0.518293,-0.060976,1
11:29:39.146,0.798340,-0.183594,0.560303,-6.219512,4.939024,-2.865854,1
11:29:39.181,0.774902,-0.143555,0.560059,-4.725610,1.798781,-9.207317,1
11:29:39.220,0.801270,-0.191650,0.574463,1.737805,2.256098,-4.939024,1
11:29:39.246,0.789062,-0.204102,0.607666,-3.932927,3.689024,-4.695122,1
11:29:39.278,0.826660,-0.204590,0.629395,2.865854,1.432927,-1.128049,1
11:29:39.313,0.792236,-0.139648,0.579590,5.792683,3.079268,-3.048780,1
11:29:39.352,0.801025,-0.124268,0.562500,4.969512,3.628049,-1.280488,1
11:29:39.359,0.810791,-0.197021,0.563965,10.121951,3.353659,2.378049,1
11:29:39.416,0.799316,-0.209229,0.601318,6.920732,4.451220,5.609756,1
11:29:39.448,0.789551,-0.155273,0.572266,-5.579268,7.103659,8.140244,1
11:29:39.456,0.777100,-0.181152,0.574219,1.158537,7.530488,3.170732,1
11:29:39.524,0.787598,-0.129150,0.613281,-7.987805,8.170732,-1.371951,1
11:29:39.532,0.760986,-0.178467,0.617432,-9.512196,6.798780,-4.359756,1
11:29:39.560,0.753418,-0.168945,0.594482,-2.743902,4.847561,-4.512195,1
11:29:39.617,0.753906,-0.173340,0.588135,0.762195,2.591464,-4.207317,1
11:29:39.627,0.755127,-0.170166,0.589355,4.115854,0.060976,-4.054878,1
11:29:39.650,0.762939,-0.166260,0.572266,3.414634,-1.097561,-5.853659,1
11:29:39.707,0.773682,-0.168213,0.588867,2.530488,-1.097561,-6.128049,1
11:29:39.742,0.775635,-0.171143,0.592529,1.798781,-2.012195,-6.036585,1
11:29:39.756,0.776367,-0.184082,0.583740,5.975610,-3.140244,-5.121951,1
11:29:39.787,0.778809,-0.189209,0.570312,5.884147,-2.896342,-3.109756,1
11:29:39.819,0.787598,-0.178955,0.599854,3.902439,-2.774390,-2.347561,1
11:29:39.853,0.783447,-0.192871,0.587646,4.054878,-2.439024,-1.829268,1
11:29:39.887,0.778809,-0.172607,0.591309,2.347561,-2.774390,-1.707317,1
11:29:39.922,0.781738,-0.171631,0.580078,2.317073,-1.310976,-1.554878,1
11:29:39.959,0.787842,-0.182373,0.585938,3.963415,0.000000,-0.335366,1
11:29:39.992,0.794189,-0.161377,0.599854,0.274390,0.640244,-0.396341,1
11:29:40.026,0.787842,-0.156982,0.597412,0.518293,0.426829,-0.152439,1
11:29:40.058,0.784668,-0.167480,0.587402,1.371951,0.609756,0.274390,1
11:29:40.093,0.788574,-0.153809,0.583008,1.371951,1.189024,-0.365854,1
11:29:40.124,0.790039,-0.150635,0.582275,2.103659,0.975610,-1.158537,1
11:29:40.159,0.788818,-0.155273,0.592285,-0.335366,0.548781,-0.914634,1
11:29:40.193,0.783936,-0.158691,0.594482,1.250000,0.213415,-0.304878,1
11:29:40.227,0.785645,-0.157715,0.583740,1.432927,1.280488,-0.731707,1
11:29:40.238,0.789795,-0.154541,0.581055,-0.670732,1.615854,-1.128049,1
11:29:40.288,0.783447,-0.168945,0.578613,2.652439,0.365854,-1.463415,1
11:29:40.327,0.789307,-0.155518,0.578857,0.030488,1.036585,-1.737805,1
11:29:40.336,0.789062,-0.156494,0.600830,-1.250000,0.762195,-1.463415,1
11:29:40.388,0.782715,-0.157227,0.583496,1.554878,0.457317,-1.402439,1
11:29:40.424,0.787109,-0.172363,0.584717,1.707317,0.640244,-1.250000,1
11:29:40.454,0.781738,-0.142090,0.597168,-1.006098,0.426829,-2.134146,1
11:29:40.486,0.785156,-0.164062,0.593994,1.463415,0.823171,-1.646342,1
11:29:40.523,0.797607,-0.172119,0.592773,2.500000,1.371951,-1.219512,1
11:29:40.543,0.789062,-0.143311,0.586914,-1.432927,1.371951,-2.530488,1
11:29:40.576,0.779297,-0.150146,0.580078,1.707317,0.670732,-2.286585,1
11:29:41.892,0.791504,-0.181152,0.583740,-0.823171,2.317073,-0.518293,1
11:29:41.946,0.780762,-0.180664,0.592285,0.457317,1.463415,-0.884146,1
11:29:41.985,0.775146,-0.161377,0.583252,-1.676829,1.280488,-1.219512,1
11:29:41.990,0.778320,-0.174316,0.586670,0.487805,0.579268,-1.554878,1
11:29:42.061,0.787109,-0.169678,0.583252,0.853659,0.487805,-1.341463,1
11:29:42.069,0.785645,-0.177246,0.589111,0.701220,0.487805,-1.646342,1
11:29:42.098,0.784668,-0.177246,0.592285,-0.548781,1.310976,-1.798781,1
11:29:42.159,0.785156,-0.177002,0.583740,0.914634,1.128049,-1.890244,1
11:29:42.176,0.782959,-0.174316,0.591797,-0.853659,0.304878,-1.951220,1
11:29:42.214,0.781250,-0.177002,0.584473,1.128049,0.365854,-1.585366,1
11:29:42.227,0.777832,-0.179688,0.586182,1.707317,0.365854,-1.128049,1
11:29:42.264,0.781006,-0.167969,0.582031,0.243902,0.457317,-2.164634,1
11:29:42.299,0.784912,-0.169922,0.581299,1.829268,-0.030488,-1.737805,1
11:29:42.332,0.783203,-0.176514,0.580322,0.823171,0.091463,-1.493902,1
11:29:42.370,0.789062,-0.176514,0.574951,-1.097561,1.189024,-3.048780,1
11:29:42.395,0.787842,-0.164795,0.595703,-6.371952,2.195122,-2.591464,1
11:29:42.428,0.782959,-0.183838,0.587891,-6.219512,2.987805,-3.536585,1
11:29:42.463,0.782715,-0.151855,0.581299,-19.024391,6.371952,-7.804878,1
11:29:42.500,0.797119,-0.137451,0.594238,-28.018293,9.115854,-11.219513,1
11:29:42.533,0.764404,-0.208252,0.605469,-17.164635,3.170732,-8.201220,1
11:29:42.567,0.756104,-0.168701,0.571289,-11.341464,3.231707,-6.951220,1
11:29:42.601,0.790039,-0.195801,0.604004,-7.439024,2.500000,-6.981708,1
11:29:42.631,0.787354,-0.184326,0.573975,-0.152439,1.981707,-5.060976,1
11:29:42.671,0.822021,-0.231445,0.580322,6.067073,2.378049,0.243902,1
11:29:42.683,0.807129,-0.210205,0.595947,3.871951,3.750000,4.329268,1
11:29:42.729,0.795410,-0.184814,0.588379,-2.134146,5.823171,5.609756,1
11:29:42.763,0.767822,-0.155029,0.579834,5.701220,5.518293,8.018292,1
11:29:42.800,0.782471,-0.181396,0.584473,14.176829,2.286585,6.371952,1
11:29:42.827,0.817627,-0.231201,0.545410,12.682927,2.621951,3.719512,1
11:29:42.871,0.811768,-0.189941,0.593262,8.536586,2.621951,4.573171,1
11:29:42.889,0.772705,-0.184082,0.634521,-4.115854,4.054878,0.030488,1
11:29:42.931,0.741699,-0.165527,0.608398,-5.000000,4.054878,-3.079268,1
11:29:42.963,0.725098,-0.181396,0.582764,-1.585366,3.384146,-4.359756,1
11:29:43.000,0.732178,-0.177490,0.605957,-6.737805,1.829268,-8.170732,1
11:29:43.027,0.740234,-0.170410,0.624756,-7.012195,0.152439,-9.695122,1
11:29:43.042,0.750000,-0.173340,0.588867,-5.182927,-0.182927,-10.335366,1
11:29:43.081,0.759766,-0.207520,0.586670,-2.286585,-0.914634,-9.634147,1
11:29:43.112,0.770020,-0.198242,0.624023,-1.707317,-1.737805,-8.170732,1
11:29:43.145,0.768555,-0.211182,0.601318,3.871951,-1.768293,-6.128049,1
11:29:43.176,0.768555,-0.209717,0.595703,6.158537,-1.798781,-3.292683,1
11:29:43.210,0.776367,-0.195068,0.603516,0.884146,-1.402439,-3.719512,1
11:29:43.244,0.776611,-0.188965,0.595215,2.804878,-1.158537,-2.621951,1
11:29:43.280,0.777100,-0.188477,0.598145,1.981707,-2.042683,-2.225610,1
11:29:43.337,0.779541,-0.186279,0.582764,3.506098,-1.676829,-2.469512,1
11:29:43.346,0.790527,-0.188721,0.588379,5.213415,0.701220,0.000000,1
11:29:43.370,0.799805,-0.181885,0.603760,1.585366,2.042683,-0.182927,1
11:29:43.403,0.782715,-0.156738,0.607422,1.920732,1.036585,-0.274390,1
11:29:43.442,0.771973,-0.169678,0.587158,2.103659,0.853659,-0.914634,1
11:29:43.478,0.775879,-0.160645,0.593018,1.737805,0.975610,-0.762195,1
11:29:43.511,0.782227,-0.167480,0.598633,1.585366,1.189024,-0.945122,1
11:29:43.545,0.777100,-0.164551,0.596924,1.250000,1.280488,-1.402439,1
11:29:43.554,0.779297,-0.163574,0.598633,0.335366,0.609756,-1.280488,1
11:29:43.609,0.780518,-0.170654,0.592529,1.006098,0.731707,-0.670732,1
11:29:43.644,0.776123,-0.166748,0.592773,0.274390,1.006098,-0.914634,1
11:29:45.478,0.770508,-0.194580,0.595215,1.920732,0.274390,-2.195122,1
11:29:45.516,0.770264,-0.189209,0.602539,1.829268,-0.060976,-1.829268,1
11:29:45.548,0.766113,-0.192871,0.603760,1.006098,0.060976,-1.890244,1
11:29:45.589,0.761963,-0.186768,0.594727,1.280488,0.213415,-2.042683,1
11:29:45.628,0.766602,-0.193848,0.603271,0.914634,0.518293,-1.493902,1
11:29:45.660,0.770996,-0.191650,0.605225,0.365854,0.792683,-1.676829,1
11:29:45.694,0.766602,-0.195801,0.602783,1.676829,0.701220,-1.036585,1
11:29:45.726,0.770508,-0.194336,0.604492,0.701220,0.640244,-0.853659,1
11:29:45.758,0.763916,-0.182617,0.601318,0.792683,1.067073,-1.097561,1
11:29:45.796,0.760742,-0.182617,0.593506,1.585366,0.640244,-1.158537,1
11:29:45.830,0.767334,-0.184814,0.595947,-0.213415,-0.213415,-1.798781,1
11:29:45.861,0.771240,-0.186768,0.601562,0.792683,-0.884146,0.060976,1
11:29:45.897,0.769775,-0.186523,0.606934,1.280488,-1.341463,1.554878,1
11:29:45.910,0.760010,-0.199219,0.566895,6.097561,-1.615854,0.152439,1
11:29:45.944,0.772217,-0.171143,0.614014,4.695122,-0.152439,1.097561,1
11:29:46.004,0.783447,-0.187744,0.613281,0.304878,2.317073,0.060976,1
11:29:46.016,0.786865,-0.183594,0.608398,-6.006098,4.512195,-8.048780,1
11:29:46.076,0.747070,-0.148926,0.575195,-16.189024,-0.030488,-12.378049,1
11:29:46.098,0.731934,-0.124512,0.556396,-12.164635,-5.396342,-16.128050,1
11:29:46.111,0.769531,-0.197021,0.552002,7.103659,-5.548780,-8.262196,1
11:29:46.170,0.851562,-0.225342,0.615234,-14.939025,-1.768293,-5.243903,1
11:29:46.187,0.798096,-0.170654,0.646240,-16.036585,2.774390,-4.237805,1
11:29:46.200,0.787354,-0.227783,0.627686,-5.853659,7.012195,1.097561,1
11:29:46.256,0.818848,-0.205078,0.652832,-7.347561,11.036586,4.329268,1
11:29:46.281,0.806396,-0.141846,0.602783,-13.323171,13.963415,4.573171,1
11:29:46.316,0.774658,-0.130615,0.566650,5.518293,10.000000,6.768293,1
11:29:46.334,0.747803,-0.153320,0.581787,12.225610,9.451220,9.573171,1
11:29:46.370,0.826904,-0.170898,0.623047,7.073171,8.658537,7.408537,1
11:29:46.402,0.765869,-0.247803,0.631348,9.146341,5.274390,3.414634,1
11:29:46.434,0.714111,-0.141846,0.610840,-0.091463,3.628049,-3.170732,1
11:29:46.466,0.694580,-0.156494,0.594971,3.140244,1.189024,-6.341464,1
11:29:46.499,0.704102,-0.183838,0.606445,6.890244,-1.250000,-7.621952,1
11:29:46.533,0.736084,-0.186768,0.607178,4.359756,-2.012195,-8.750000,1
11:29:46.566,0.745361,-0.211914,0.606201,6.158537,-3.597561,-9.329268,1
11:29:46.602,0.755371,-0.200684,0.597656,5.670732,-3.628049,-7.378049,1
11:29:46.635,0.756104,-0.204102,0.595703,3.140244,-3.689024,-5.274390,1
11:29:46.675,0.755127,-0.209229,0.604736,5.609756,-5.030488,-3.597561,1
11:29:46.700,0.757324,-0.214355,0.592529,8.780488,-5.335366,-1.737805,1
11:29:46.737,0.770508,-0.192627,0.605957,5.609756,-4.329268,-0.762195,1
11:29:46.777,0.778564,-0.189697,0.604492,4.634147,-2.835366,-1.676829,1
11:29:46.788,0.777344,-0.183350,0.611816,0.975610,-0.945122,-0.823171,1
11:29:46.821,0.774170,-0.175049,0.610352,1.250000,-0.060976,-0.579268,1
11:29:46.880,0.770996,-0.173584,0.615479,1.951220,0.335366,0.030488,1
11:29:46.887,0.763916,-0.160889,0.605225,2.408537,-0.213415,-0.823171,1
11:29:46.938,0.764648,-0.159424,0.624268,2.012195,-0.792683,-0.579268,1
11:29:46.977,0.780762,-0.155762,0.605469,2.073171,0.304878,-0.914634,1
11:29:46.985,0.773682,-0.165039,0.611816,4.451220,0.518293,-1.036585,1
11:29:47.035,0.782959,-0.153809,0.608887,1.402439,1.280488,-1.310976,1
11:29:47.042,0.780029,-0.150635,0.620850,-0.243902,1.371951,-1.341463,1
11:29:47.096,0.777100,-0.154785,0.604736,2.682927,1.219512,-1.493902,1
11:29:47.126,0.774170,-0.148438,0.596680,-1.310976,1.981707,-1.707317,1
11:29:47.177,0.777100,-0.157227,0.601074,-1.676829,2.012195,-2.530488,1
11:29:47.184,0.774658,-0.162842,0.606201,-0.579268,1.951220,-2.378049,1
11:29:47.225,0.771973,-0.163330,0.589600,-1.036585,1.707317,-2.378049,1
11:29:49.310,0.768066,-0.191895,0.595703,-0.152439,0.304878,-2.164634,1
11:29:49.383,0.770020,-0.199951,0.601074,1.768293,-0.365854,-1.676829,1
11:29:49.398,0.767578,-0.193604,0.597412,-0.091463,0.060976,-1.676829,1
11:29:49.425,0.766602,-0.199951,0.597656,1.585366,0.091463,-0.884146,1
11:29:49.479,0.768555,-0.203369,0.602783,1.585366,0.030488,-0.670732,1
11:29:49.484,0.766357,-0.184814,0.601318,-0.640244,0.243902,-0.823171,1
11:29:49.524,0.762939,-0.198486,0.599854,2.378049,0.670732,-0.457317,1
11:29:49.578,0.772705,-0.188965,0.608154,-1.310976,0.426829,-0.640244,1
11:29:49.587,0.766602,-0.191650,0.598633,-0.731707,-0.182927,-0.365854,1
11:29:49.614,0.761475,-0.193359,0.590576,-0.335366,-0.579268,-0.579268,1
11:29:49.647,0.767578,-0.183838,0.588867,-0.121951,-1.798781,-1.280488,1
11:29:49.691,0.770752,-0.170410,0.588135,1.036585,-2.530488,-2.225610,1
11:29:49.736,0.778076,-0.186035,0.577148,-0.213415,-1.128049,-2.591464,1
11:29:49.768,0.795410,-0.190918,0.591797,-2.957317,1.798781,-2.439024,1
11:29:49.801,0.798584,-0.184082,0.597656,-3.506098,5.335366,-4.451220,1
11:29:49.834,0.780762,-0.262939,0.619141,13.414635,2.134146,-1.920732,1
11:29:49.867,0.779053,-0.128418,0.618164,-13.810976,2.682927,-6.128049,1
11:29:49.905,0.741455,-0.138428,0.589600,-5.457317,-0.060976,-6.158537,1
11:29:49.913,0.780762,-0.217041,0.573975,6.371952,-2.530488,-5.945122,1
11:29:49.943,0.815430,-0.175537,0.611084,-4.664634,0.670732,-5.243903,1
11:29:50.000,0.835449,-0.239014,0.621826,-3.689024,2.896342,0.640244,1
11:29:50.035,0.808838,-0.175049,0.564697,-18.384148,5.213415,-1.737805,1
11:29:50.066,0.782471,-0.091553,0.508789,-6.707317,4.786585,0.213415,1
11:29:50.082,0.760010,-0.166260,0.568115,-6.158537,7.103659,-2.134146,1
11:29:50.119,0.819336,-0.146484,0.625732,-22.439026,8.780488,-6.006098,1
11:29:50.157,0.785156,-0.210449,0.647705,-24.908537,10.182927,-6.981708,1
11:29:50.186,0.764404,-0.194824,0.599854,-22.042683,11.585366,-7.164634,1
11:29:50.216,0.735107,-0.224365,0.602051,-7.713415,7.408537,-4.634147,1
11:29:50.252,0.704834,-0.235840,0.604492,0.121951,1.219512,-3.689024,1
11:29:50.291,0.710205,-0.241699,0.568359,7.103659,-2.774390,-4.085366,1
11:29:50.301,0.733643,-0.217285,0.562988,5.762195,-2.835366,-4.115854,1
11:29:50.351,0.747314,-0.232910,0.604004,5.243903,-3.445122,-3.170732,1
11:29:50.389,0.757080,-0.221924,0.602783,7.560976,-3.506098,-2.652439,1
11:29:50.424,0.764160,-0.233398,0.591064,7.317073,-3.780488,-1.219512,1
11:29:50.454,0.781494,-0.210205,0.587158,5.487805,-2.317073,-1.951220,1
11:29:50.487,0.782715,-0.200439,0.611816,6.189024,-0.365854,-0.487805,1
11:29:50.506,0.789307,-0.200928,0.614990,3.871951,1.432927,0.853659,1
11:29:50.539,0.780273,-0.200195,0.603760,4.146341,1.219512,0.701220,1
11:29:50.574,0.770264,-0.185547,0.594238,3.018293,1.189024,-0.396341,1
11:29:50.591,0.766846,-0.176270,0.600098,3.506098,0.731707,-0.945122,1
11:29:50.648,0.772217,-0.195068,0.591797,5.792683,0.884146,-0.853659,1
11:29:50.687,0.773926,-0.193115,0.596680,3.719512,1.280488,-0.243902,1
11:29:50.697,0.776367,-0.173828,0.607910,0.030488,1.250000,-1.676829,1
11:29:50.746,0.768311,-0.196533,0.595703,2.500000,0.945122,-1.097561,1
11:29:54.457,0.767334,-0.186035,0.602539,-0.274390,1.219512,-1.646342,1
11:29:54.505,0.766357,-0.186768,0.596680,0.609756,0.792683,-1.981707,1
11:29:54.548,0.769531,-0.197266,0.599609,1.707317,-0.182927,-1.768293,1
11:29:54.578,0.770020,-0.190674,0.600830,-0.914634,0.213415,-1.432927,1
11:29:54.611,0.768311,-0.192139,0.596436,1.707317,0.426829,-0.884146,1
11:29:54.642,0.769531,-0.191406,0.601074,0.548781,0.335366,-1.067073,1
11:29:54.675,0.766846,-0.186768,0.595459,0.304878,-0.121951,-1.280488,1
11:29:54.708,0.764648,-0.189209,0.596924,1.676829,-0.182927,-0.853659,1
11:29:54.740,0.768555,-0.192871,0.598877,1.006098,-0.060976,-0.365854,1
11:29:54.778,0.768555,-0.188232,0.601318,0.274390,-0.304878,-1.036585,1
11:29:54.795,0.770508,-0.183838,0.598633,0.152439,0.213415,-0.670732,1
11:29:54.854,0.772217,-0.187500,0.600342,1.250000,0.060976,-0.426829,1
11:29:54.862,0.772217,-0.186035,0.597656,2.103659,-0.274390,-0.487805,1
11:29:54.914,0.773193,-0.190674,0.604980,1.646342,0.121951,-1.158537,1
11:29:54.930,0.773438,-0.181396,0.595703,0.426829,0.762195,-1.951220,1
11:29:54.963,0.775391,-0.184326,0.593750,2.256098,-0.243902,-1.341463,1
11:29:54.997,0.773682,-0.171631,0.578369,1.829268,-1.128049,-2.256098,1
11:29:55.031,0.780029,-0.166748,0.590820,-3.871951,1.128049,-3.292683,1
11:29:55.063,0.765381,-0.139160,0.572754,-7.347561,2.103659,-6.859756,1
11:29:55.094,0.759766,-0.136719,0.568359,-7.621952,0.121951,-11.554878,1
11:29:55.128,0.775391,-0.197021,0.633789,-3.567073,0.091463,-9.146341,1
11:29:55.163,0.795410,-0.197021,0.639160,-5.792683,1.798781,-8.079268,1
11:29:55.171,0.804199,-0.237305,0.605225,7.835366,1.768293,-0.975610,1
11:29:55.229,0.786865,-0.196777,0.614990,0.823171,2.591464,0.670732,1
11:29:55.262,0.765137,-0.167969,0.586914,1.250000,4.146341,0.335366,1
11:29:55.295,0.786865,-0.166260,0.566895,1.402439,5.304878,0.274390,1
11:29:55.328,0.821777,-0.202637,0.584473,-8.902439,7.378049,2.012195,1
11:29:55.351,0.812744,-0.148438,0.586426,-13.963415,8.902439,1.981707,1
11:29:55.383,0.770996,-0.189941,0.556641,2.865854,3.506098,-1.189024,1
11:29:55.437,0.772705,-0.172363,0.539551,-4.542683,0.945122,-7.469512,1
11:29:55.445,0.767578,-0.168945,0.603271,-3.292683,-0.304878,-7.682927,1
11:29:55.470,0.766602,-0.159424,0.611816,-5.975610,0.579268,-8.414635,1
11:29:55.528,0.769531,-0.163574,0.617432,-8.750000,2.439024,-9.390244,1
11:29:55.566,0.769287,-0.178955,0.623047,-6.006098,2.256098,-9.024390,1
11:29:55.576,0.769043,-0.183105,0.603271,-3.658537,2.469512,-7.256098,1
11:29:55.604,0.761475,-0.191895,0.611328,-1.036585,1.189024,-6.646342,1
11:29:55.660,0.751953,-0.190430,0.596680,2.530488,-0.396341,-5.579268,1
11:29:55.695,0.757812,-0.201416,0.593262,2.682927,-1.676829,-4.939024,1
11:29:55.727,0.766602,-0.194824,0.593506,2.317073,-1.646342,-5.884147,1
11:29:55.765,0.764893,-0.194336,0.589844,3.841464,-1.402439,-4.512195,1
11:29:55.779,0.770508,-0.192871,0.597900,1.371951,-2.103659,-3.414634,1
11:29:55.805,0.784668,-0.195068,0.593750,3.414634,-0.670732,-1.219512,1
11:29:55.837,0.789795,-0.202148,0.602783,2.743902,0.609756,-0.457317,1
11:29:55.870,0.781250,-0.182617,0.601074,1.798781,0.609756,-0.884146,1
11:29:55.908,0.776855,-0.166748,0.593994,1.493902,0.609756,-0.884146,1
11:29:55.965,0.780029,-0.166748,0.601318,2.469512,0.518293,-0.670732,1
11:29:55.975,0.782959,-0.168701,0.593506,3.201220,0.640244,-0.365854,1
11:29:56.024,0.784424,-0.166016,0.597168,1.097561,1.463415,-0.426829,1
11:29:56.057,0.782715,-0.160889,0.596191,2.500000,1.128049,-0.701220,1
11:29:56.069,0.777588,-0.163818,0.583984,1.737805,-0.030488,-1.554878,1
11:29:56.144,0.779053,-0.160645,0.591797,1.036585,0.091463,-1.554878,1
11:29:59.267,0.772217,-0.191406,0.599121,-1.067073,0.823171,-1.310976,1
11:29:59.323,0.771484,-0.190186,0.597900,0.548781,0.426829,-1.310976,1
11:29:59.354,0.768799,-0.190430,0.601318,-0.060976,0.609756,-0.914634,1
11:29:59.387,0.766113,-0.187988,0.598633,-0.030488,0.518293,-1.158537,1
11:29:59.420,0.765869,-0.180176,0.604492,-0.609756,0.762195,-1.128049,1
11:29:59.456,0.769043,-0.191406,0.605957,0.487805,0.640244,-0.823171,1
11:29:59.473,0.769775,-0.183350,0.605225,-0.091463,0.701220,-0.945122,1
11:29:59.531,0.770508,-0.187744,0.607178,0.792683,0.731707,-1.128049,1
11:29:59.563,0.762451,-0.184326,0.604736,0.579268,0.762195,-0.884146,1
11:29:59.596,0.764648,-0.188721,0.610107,0.335366,0.182927,-1.036585,1
11:29:59.628,0.759766,-0.186523,0.599854,1.280488,0.548781,-1.341463,1
11:29:59.663,0.765869,-0.176025,0.599365,-0.731707,0.548781,-1.768293,1
11:29:59.673,0.764648,-0.177002,0.600342,-1.890244,0.091463,-2.835366,1
11:29:59.733,0.767090,-0.187256,0.594971,-2.743902,-0.548781,-2.560976,1
11:29:59.765,0.764893,-0.187988,0.578613,0.000000,-1.829268,-3.018293,1
11:29:59.793,0.768311,-0.165527,0.560791,-3.810976,-1.341463,-4.817073,1
11:29:59.827,0.792236,-0.167236,0.582031,-8.109756,1.768293,-5.731708,1
11:29:59.862,0.785889,-0.193115,0.578613,-5.182927,1.585366,-6.737805,1
11:29:59.885,0.794922,-0.162354,0.607178,-14.451220,2.713415,-10.396341,1
11:29:59.916,0.774902,-0.173096,0.646484,-14.420732,3.658537,-9.817074,1
11:29:59.972,0.767578,-0.221680,0.613037,-4.420732,2.317073,-6.128049,1
11:29:59.987,0.769043,-0.207275,0.620117,-5.121951,2.713415,-3.262195,1
11:30:00.023,0.785889,-0.237793,0.619385,0.457317,2.896342,-2.774390,1
11:30:00.049,0.784180,-0.203369,0.593994,2.469512,3.262195,-1.920732,1
11:30:00.085,0.795654,-0.194336,0.585449,0.243902,4.390244,0.701220,1
11:30:00.117,0.789795,-0.188232,0.581543,-4.146341,4.512195,0.762195,1
11:30:00.150,0.790527,-0.124023,0.553223,-2.530488,2.774390,2.682927,1
11:30:00.157,0.778320,-0.221191,0.570068,3.323171,2.896342,-1.097561,1
11:30:00.206,0.814209,-0.165771,0.599609,-5.457317,3.719512,-2.439024,1
11:30:00.244,0.794922,-0.192139,0.621094,-2.286585,4.817073,-4.512195,1
11:30:00.258,0.765625,-0.165771,0.610352,-5.701220,5.426829,-6.768293,1
11:30:00.311,0.736084,-0.159424,0.607178,-8.963415,5.000000,-10.000000,1
11:30:00.342,0.729492,-0.184326,0.611816,-3.658537,2.530488,-9.756098,1
11:30:00.375,0.724121,-0.200684,0.594727,0.823171,-0.487805,-8.993902,1
11:30:00.407,0.748047,-0.199951,0.599854,2.865854,-1.920732,-8.231708,1
11:30:00.443,0.752197,-0.211670,0.595215,2.286585,-2.408537,-6.981708,1
11:30:00.451,0.762451,-0.217285,0.602051,5.365854,-2.378049,-4.237805,1
11:30:00.509,0.774170,-0.204590,0.591064,2.926829,-1.371951,-3.079268,1
11:30:00.541,0.785400,-0.197021,0.584717,0.914634,-0.548781,-1.524390,1
11:30:00.575,0.783447,-0.201660,0.602051,3.932927,-1.341463,0.365854,1
11:30:00.608,0.776855,-0.184082,0.586182,4.085366,-0.274390,0.914634,1
11:30:00.644,0.774414,-0.173340,0.605957,4.329268,0.518293,0.091463,1
11:30:00.652,0.773438,-0.150879,0.614990,0.426829,1.493902,-1.067073,1
11:30:00.696,0.766602,-0.169922,0.612793,1.737805,1.432927,-0.762195,1
11:30:00.729,0.775391,-0.170654,0.602783,0.640244,1.981707,-0.609756,1
11:30:00.759,0.778320,-0.166016,0.613770,0.945122,1.036585,-0.975610,1
11:30:00.790,0.773193,-0.172363,0.596924,3.018293,0.853659,-0.792683,1
11:30:03.633,0.764893,-0.202637,0.596924,0.975610,0.182927,-1.981707,1
11:30:03.673,0.770264,-0.199707,0.600342,1.158537,1.219512,-1.432927,1
11:30:03.734,0.765381,-0.196533,0.594238,0.884146,0.548781,-1.646342,1
11:30:03.747,0.769043,-0.204102,0.605713,1.189024,-0.396341,-1.646342,1
11:30:03.776,0.764893,-0.199951,0.599609,1.737805,0.518293,-0.640244,1
11:30:03.812,0.766357,-0.201660,0.603760,2.195122,0.762195,-0.152439,1
11:30:03.845,0.768799,-0.197754,0.607422,-0.213415,1.646342,-0.945122,1
11:30:03.877,0.766357,-0.201904,0.607910,3.140244,0.762195,0.030488,1
11:30:03.916,0.766357,-0.201904,0.595947,2.317073,1.158537,0.579268,1
11:30:03.947,0.765869,-0.199463,0.598145,1.707317,1.189024,-0.243902,1
11:30:03.987,0.762207,-0.188965,0.597412,1.524390,0.731707,-0.548781,1
11:30:04.020,0.761963,-0.197021,0.596191,3.414634,0.091463,-0.457317,1
11:30:04.052,0.767334,-0.194092,0.593262,3.140244,0.396341,0.152439,1
11:30:04.084,0.768555,-0.192627,0.594482,-1.250000,0.914634,-1.280488,1
11:30:04.117,0.765625,-0.192871,0.600586,-1.219512,0.091463,-0.060976,1
11:30:04.151,0.764893,-0.205078,0.602295,2.560976,-0.182927,-0.060976,1
11:30:04.191,0.759277,-0.192139,0.583984,-5.304878,5.365854,-4.024390,1
11:30:04.224,0.805908,-0.176514,0.623535,-15.091464,9.176829,-5.152439,1
11:30:04.256,0.770996,-0.204590,0.656006,-17.439024,9.573171,-7.256098,1
11:30:04.267,0.742920,-0.209717,0.650146,-9.481708,6.676829,-5.640244,1
11:30:04.319,0.714600,-0.178467,0.556641,-8.658537,6.615854,-3.780488,1
11:30:04.355,0.758057,-0.233154,0.585205,-2.408537,4.268293,-3.170732,1
11:30:04.366,0.773193,-0.226318,0.605713,2.652439,4.268293,1.036585,1
11:30:04.421,0.798340,-0.224854,0.602783,3.780488,4.268293,2.347561,1
11:30:04.428,0.792236,-0.194580,0.625732,-0.243902,4.725610,2.957317,1
11:30:04.476,0.788330,-0.186768,0.597900,-0.060976,4.969512,4.573171,1
11:30:04.510,0.778809,-0.197021,0.554443,8.048780,6.402439,6.981708,1
11:30:04.550,0.748047,-0.161133,0.684326,-0.091463,8.292683,5.457317,1
11:30:04.559,0.766113,-0.229736,0.598877,-8.658537,11.676829,-2.926829,1
11:30:04.609,0.729736,-0.213867,0.603516,-5.243903,9.603659,-5.243903,1
11:30:04.643,0.717285,-0.189209,0.644531,-8.689025,7.530488,-7.012195,1
11:30:04.676,0.705566,-0.210205,0.608643,-2.652439,2.073171,-9.054878,1
11:30:04.710,0.713135,-0.212158,0.596436,4.085366,-0.518293,-5.762195,1
11:30:04.741,0.738525,-0.231934,0.620361,4.176829,-0.853659,-5.304878,1
11:30:04.760,0.737549,-0.222900,0.628418,2.591464,-0.884146,-5.884147,1
11:30:04.793,0.733887,-0.228516,0.640381,4.298780,-1.737805,-5.060976,1
11:30:04.837,0.733154,-0.220215,0.621582,1.280488,-1.554878,-4.725610,1
11:30:04.865,0.731689,-0.207520,0.593018,1.951220,-1.920732,-5.152439,1
11:30:04.898,0.725586,-0.212891,0.628906,2.713415,-3.231707,-4.634147,1
11:30:04.932,0.733887,-0.206299,0.633545,2.195122,-3.597561,-4.969512,1
11:30:04.970,0.746094,-0.197510,0.616699,1.951220,-2.500000,-5.213415,1
11:30:05.004,0.758057,-0.199219,0.634033,-0.457317,-1.737805,-4.451220,1
11:30:05.036,0.762939,-0.211914,0.640869,0.579268,-0.548781,-2.774390,1
11:30:05.097,0.765869,-0.210449,0.630127,1.554878,0.792683,-1.158537,1
11:30:05.105,0.757324,-0.202881,0.630859,-0.396341,2.134146,-1.036585,1
11:30:05.130,0.748779,-0.198730,0.635498,-1.250000,1.920732,-1.463415,1
11:30:05.145,0.742432,-0.202637,0.622803,1.219512,0.884146,-1.280488,1
11:30:05.192,0.746582,-0.194336,0.631836,-0.853659,1.219512,-1.676829,1
11:30:05.225,0.746338,-0.196289,0.621338,1.554878,1.859756,-1.463415,1
11:30:08.170,0.768311,-0.210938,0.596924,0.030488,1.128049,-1.981707,1
11:30:08.209,0.767822,-0.223877,0.593750,-0.091463,0.914634,-1.829268,1
11:30:08.239,0.767822,-0.221924,0.596680,0.396341,0.884146,-2.103659,1
11:30:08.279,0.763184,-0.209473,0.596924,0.640244,1.493902,-1.981707,1
11:30:08.310,0.767090,-0.213379,0.601807,0.640244,1.432927,-1.951220,1
11:30:08.344,0.764648,-0.219482,0.595459,2.682927,0.731707,-1.341463,1
11:30:08.377,0.762695,-0.214355,0.599854,-0.304878,1.006098,-1.707317,1
11:30:08.412,0.764893,-0.213623,0.595459,1.768293,1.371951,-2.103659,1
11:30:08.444,0.761719,-0.216553,0.596436,2.743902,0.487805,-2.103659,1
11:30:08.454,0.764404,-0.207275,0.600586,0.701220,0.762195,-1.554878,1
11:30:08.513,0.757812,-0.230225,0.597900,4.603659,0.304878,-1.036585,1
11:30:08.546,0.760254,-0.214111,0.600098,1.737805,0.335366,-1.615854,1
11:30:08.556,0.759521,-0.208984,0.602539,2.317073,0.304878,-1.280488,1
11:30:08.616,0.760986,-0.229004,0.597900,4.939024,-0.426829,-0.304878,1
11:30:08.658,0.763184,-0.213135,0.593994,1.890244,0.000000,-1.158537,1
11:30:08.666,0.760742,-0.218018,0.602783,2.774390,0.243902,-1.006098,1
11:30:08.714,0.765625,-0.211182,0.594727,0.426829,0.457317,-1.615854,1
11:30:08.744,0.765869,-0.208984,0.596924,0.670732,0.182927,-2.073171,1
11:30:08.778,0.762695,-0.203857,0.597656,-1.097561,0.000000,-4.573171,1
11:30:08.807,0.773438,-0.187256,0.532959,7.896342,4.725610,-4.176829,1
11:30:08.848,0.817383,-0.231934,0.619385,4.878049,7.500000,-9.756098,1
11:30:08.859,0.764160,-0.109375,0.618408,-30.152439,1.158537,-20.091463,1
11:30:08.886,0.747803,-0.179199,0.547363,0.213415,-0.274390,-8.810976,1
11:30:08.933,0.775879,-0.321045,0.616943,9.481708,-0.701220,-2.408537,1
11:30:08.966,0.808105,-0.225098,0.616211,-1.585366,1.768293,0.975610,1
11:30:08.997,0.779785,-0.193115,0.598633,9.451220,3.079268,2.256098,1
11:30:09.033,0.789795,-0.159180,0.623291,-0.823171,5.365854,2.835366,1
11:30:09.069,0.802979,-0.167480,0.627441,-6.371952,7.195122,3.445122,1
11:30:09.101,0.766846,-0.157715,0.551025,6.890244,5.792683,6.798780,1
11:30:09.134,0.748291,-0.170654,0.576660,2.682927,4.481708,0.731707,1
11:30:09.167,0.783203,-0.173584,0.602051,-0.884146,4.390244,-1.951220,1
11:30:09.201,0.761963,-0.201904,0.639404,-0.396341,6.554878,-2.408537,1
11:30:09.243,0.750488,-0.185303,0.641602,-8.384147,7.804878,20.000000,1
11:30:09.253,-0.592041,0.002197,-0.006836,-9.756098,5.243903,-7.957317,1
11:30:09.308,0.705078,-0.197998,0.603760,-1.707317,2.103659,-6.951220,1
11:30:09.340,0.711914,-0.222656,0.610107,-0.975610,-1.341463,-8.140244,1
11:30:09.349,0.735840,-0.197510,0.581299,0.640244,-3.689024,-8.445122,1
11:30:09.402,0.745361,-0.220703,0.586426,1.006098,-4.634147,-7.439024,1
11:30:09.415,0.762451,-0.213623,0.596680,3.475610,-4.298780,-4.878049,1
11:30:09.441,0.772705,-0.218506,0.606445,-0.091463,-3.658537,-3.262195,1
11:30:09.498,0.770996,-0.208252,0.595703,-0.731707,-2.591464,-3.079268,1
11:30:09.506,0.772949,-0.214844,0.608154,2.164634,-1.646342,-1.615854,1
11:30:09.555,0.774414,-0.201172,0.619873,-2.256098,0.213415,-0.518293,1
11:30:09.587,0.762451,-0.201416,0.612061,0.060976,-0.914634,-1.341463,1
11:30:09.622,0.759521,-0.184814,0.602783,-0.182927,-0.487805,-1.310976,1
11:30:09.632,0.771729,-0.197998,0.616699,0.152439,0.884146,-0.030488,1
11:30:09.689,0.766113,-0.197510,0.618896,-0.060976,1.036585,-0.518293,1
11:30:09.722,0.760254,-0.186523,0.608154,-0.701220,0.518293,-1.646342,1
11:30:09.754,0.766602,-0.197754,0.604736,0.457317,1.341463,-1.402439,1
11:30:12.450,0.752441,-0.204834,0.615234,1.493902,1.524390,-0.975610,1
11:30:12.489,0.756836,-0.188965,0.616455,-1.128049,1.158537,-1.341463,1
11:30:12.507,0.750977,-0.191406,0.611816,0.579268,1.006098,-1.310976,1
11:30:12.539,0.751221,-0.194336,0.604492,1.097561,0.335366,-1.737805,1
11:30:12.574,0.758057,-0.197510,0.614746,-0.457317,-0.304878,-1.859756,1
11:30:12.606,0.760498,-0.203125,0.616455,1.829268,-0.030488,-0.823171,1
11:30:12.639,0.757080,-0.205322,0.617920,1.951220,0.609756,-0.182927,1
11:30:12.674,0.753662,-0.198486,0.616699,-0.579268,0.640244,-1.280488,1
11:30:12.708,0.749023,-0.199951,0.613525,0.609756,0.274390,-1.341463,1
11:30:12.741,0.749268,-0.194336,0.616211,0.853659,0.579268,-0.609756,1
11:30:12.774,0.748291,-0.203857,0.614014,-0.701220,0.640244,-1.250000,1
11:30:12.810,0.753662,-0.201172,0.616943,-1.097561,0.457317,-1.371951,1
11:30:12.840,0.750977,-0.198975,0.620605,0.121951,0.000000,-0.579268,1
11:30:12.871,0.753418,-0.208984,0.594482,1.158537,0.152439,-1.006098,1
11:30:12.904,0.758057,-0.196533,0.603271,-0.914634,0.884146,-2.103659,1
11:30:12.936,0.760742,-0.201904,0.610107,0.701220,-1.067073,-2.987805,1
11:30:12.972,0.756104,-0.191162,0.587646,-1.768293,-2.012195,-4.329268,1
11:30:13.005,0.754639,-0.180664,0.565430,-4.268293,-0.365854,-7.103659,1
11:30:13.037,0.794922,-0.176270,0.584473,-9.756098,3.445122,-8.963415,1
11:30:13.071,0.796631,-0.179199,0.606689,-6.920732,1.585366,-9.451220,1
11:30:13.104,0.754883,-0.225098,0.663574,-4.237805,1.432927,-6.646342,1
11:30:13.136,0.754150,-0.185791,0.650635,-18.231709,4.634147,-4.908537,1
11:30:13.174,0.767334,-0.216553,0.666260,-5.670732,4.634147,-4.420732,1
11:30:13.208,0.780518,-0.217529,0.628906,-0.518293,5.823171,-0.579268,1
11:30:13.239,0.799316,-0.226562,0.613770,-3.323171,7.317073,1.829268,1
11:30:13.274,0.806885,-0.162842,0.605713,-8.993902,8.262196,0.426829,1
11:30:13.291,0.751709,-0.166260,0.573975,7.073171,3.963415,-0.487805,1
11:30:13.325,0.774902,-0.177246,0.516846,6.920732,6.128049,-1.524390,1
11:30:13.361,0.815918,-0.191895,0.632568,-6.646342,6.189024,-4.024390,1
11:30:13.393,0.748291,-0.203369,0.625732,-1.341463,4.451220,-3.993902,1
11:30:13.427,0.717285,-0.212402,0.595459,3.414634,2.469512,-4.359756,1
11:30:13.435,0.708496,-0.193359,0.585205,-0.823171,1.798781,-7.103659,1
11:30:13.491,0.720215,-0.199219,0.631592,0.030488,-0.579268,-7.713415,1
11:30:13.526,0.718018,-0.211182,0.616943,1.006098,-2.926829,-8.170732,1
11:30:13.537,0.728027,-0.217041,0.605469,1.737805,-4.329268,-7.408537,1
11:30:13.590,0.744629,-0.226807,0.593262,2.225610,-3.780488,-7.408537,1
11:30:13.624,0.755127,-0.212891,0.607666,-0.030488,-3.445122,-5.975610,1
11:30:13.661,0.758057,-0.222656,0.619873,2.560976,-3.780488,-2.865854,1
11:30:13.688,0.762939,-0.217529,0.613281,2.164634,-2.957317,-2.042683,1
11:30:13.707,0.762451,-0.202393,0.615723,-0.182927,-1.676829,-1.676829,1
11:30:13.742,0.764648,-0.197754,0.625732,-0.457317,0.579268,-1.067073,1
11:30:13.776,0.767822,-0.205566,0.623291,1.920732,0.609756,-0.121951,1
11:30:13.807,0.772461,-0.187988,0.625488,-2.560976,1.646342,-0.518293,1
11:30:13.840,0.761475,-0.186279,0.619873,0.670732,1.341463,-0.274390,1
11:30:13.874,0.755371,-0.185059,0.610840,1.371951,1.737805,-0.274390,1
11:30:13.906,0.763916,-0.191162,0.627197,0.426829,1.676829,-0.518293,1
11:30:13.948,0.767578,-0.182373,0.614502,0.000000,1.493902,-0.945122,1
11:30:13.979,0.764404,-0.187256,0.597900,1.341463,1.920732,-0.884146,1
11:30:17.115,0.753418,-0.200684,0.607178,-0.335366,0.152439,-2.103659,1
11:30:17.151,0.755371,-0.205811,0.608887,1.737805,-0.121951,-2.560976,1
11:30:17.213,0.756592,-0.202393,0.612549,-0.060976,0.152439,-2.012195,1
11:30:17.247,0.755859,-0.207031,0.619385,-0.213415,0.243902,-1.707317,1
11:30:17.254,0.754150,-0.208252,0.610352,0.701220,0.182927,-1.676829,1
11:30:17.311,0.757568,-0.206543,0.620117,-0.213415,0.670732,-1.493902,1
11:30:17.340,0.758789,-0.204590,0.613037,0.243902,1.402439,-0.670732,1
11:30:17.373,0.760742,-0.207764,0.613770,1.432927,0.731707,-0.579268,1
11:30:17.404,0.752930,-0.197754,0.617676,0.152439,0.365854,-0.396341,1
11:30:17.420,0.752197,-0.210938,0.600830,1.585366,0.274390,-0.365854,1
11:30:17.455,0.757324,-0.206787,0.607910,1.250000,0.274390,-0.060976,1
11:30:17.489,0.760010,-0.209961,0.621338,1.829268,-0.426829,0.487805,1
11:30:17.524,0.751953,-0.204102,0.595703,1.524390,-1.006098,-0.335366,1
11:30:17.556,0.755859,-0.191162,0.593506,2.347561,-1.798781,-1.432927,1
11:30:17.589,0.760986,-0.190674,0.598633,-2.743902,-1.189024,-2.835366,1
11:30:17.624,0.765381,-0.190186,0.602051,-4.481708,-2.835366,-4.939024,1
11:30:17.636,0.771240,-0.150146,0.509033,-8.353659,2.195122,-7.804878,1
11:30:17.696,0.788086,-0.189941,0.587158,-12.896341,4.878049,-8.993902,1
11:30:17.727,0.781738,-0.226074,0.632568,-12.012196,4.573171,-7.713415,1
11:30:17.757,0.772217,-0.239746,0.640869,-12.256098,1.737805,-6.250000,1
11:30:17.789,0.775879,-0.209961,0.622559,-20.152439,3.841464,-6.432927,1
11:30:17.831,0.736572,-0.224854,0.609375,-4.908537,4.695122,-3.597561,1
11:30:17.839,0.765381,-0.256348,0.612549,-1.890244,4.969512,1.097561,1
11:30:17.894,0.810791,-0.213135,0.631836,-6.097561,4.817073,1.951220,1
11:30:17.902,0.810303,-0.150391,0.594238,-14.573171,8.231708,-0.609756,1
11:30:17.934,0.781006,-0.164062,0.565186,3.201220,5.091464,0.182927,1
11:30:17.991,0.751465,-0.137207,0.549561,-5.640244,8.750000,-4.298780,1
11:30:18.028,0.787842,-0.165039,0.635254,-8.871951,7.012195,-4.298780,1
11:30:18.046,0.756592,-0.198730,0.634277,-14.573171,6.280488,-8.932927,1
11:30:18.091,0.733154,-0.197998,0.587402,-12.408537,6.189024,-11.128049,1
11:30:18.123,0.724365,-0.224365,0.614502,-9.115854,5.152439,-10.030488,1
11:30:18.155,0.717773,-0.253662,0.617188,1.585366,0.457317,-7.042683,1
11:30:18.188,0.708252,-0.267334,0.582520,6.280488,-3.445122,-5.182927,1
11:30:18.225,0.727539,-0.257568,0.596680,4.817073,-4.390244,-5.579268,1
11:30:18.233,0.732910,-0.246826,0.594971,4.512195,-4.146341,-4.969512,1
11:30:18.265,0.739502,-0.247803,0.609375,6.128049,-4.786585,-3.506098,1
11:30:18.302,0.760254,-0.248047,0.605469,3.536585,-3.902439,-1.768293,1
11:30:18.330,0.776611,-0.242920,0.594482,-0.579268,0.213415,-0.487805,1
11:30:18.387,0.770996,-0.230713,0.627197,-1.310976,1.768293,-0.884146,1
11:30:18.423,0.763916,-0.227783,0.608154,1.310976,2.713415,-0.213415,1
11:30:18.431,0.760254,-0.211182,0.624512,0.426829,2.073171,-0.182927,1
11:30:18.485,0.749268,-0.200195,0.618408,2.378049,0.792683,-0.426829,1
11:30:18.518,0.757568,-0.197998,0.602295,3.018293,0.701220,-0.548781,1
11:30:18.531,0.770020,-0.208008,0.606201,3.536585,1.493902,0.213415,1
11:30:18.582,0.764404,-0.211426,0.612549,3.689024,1.432927,0.060976,1
11:30:18.590,0.764404,-0.200684,0.611816,2.256098,1.768293,-0.670732,1
11:30:18.623,0.763916,-0.210205,0.606689,0.243902,2.347561,-1.158537,1
11:30:18.680,0.761475,-0.203857,0.604492,0.365854,2.042683,-1.981707,1
11:30:18.689,0.751953,-0.203369,0.603516,0.000000,1.524390,-2.073171,1
11:30:20.849,0.758057,-0.205566,0.612549,-0.091463,1.432927,-1.554878,1
11:30:20.885,0.753174,-0.209473,0.610107,-0.579268,1.036585,-1.951220,1
11:30:20.910,0.755615,-0.202148,0.607666,-0.579268,1.036585,-2.134146,1
11:30:20.949,0.757080,-0.209229,0.612549,0.274390,0.640244,-1.951220,1
11:30:20.957,0.758789,-0.205322,0.622803,-1.158537,1.097561,-2.469512,1
11:30:21.013,0.752686,-0.213135,0.609131,0.762195,1.402439,-2.560976,1
11:30:21.046,0.757080,-0.205566,0.622070,-1.067073,0.762195,-3.109756,1
11:30:21.079,0.755859,-0.213867,0.615234,-0.579268,0.884146,-2.195122,1
11:30:21.111,0.751221,-0.211182,0.618164,1.250000,1.006098,-2.103659,1
11:30:21.146,0.748047,-0.199951,0.613281,-0.213415,0.945122,-2.530488,1
11:30:21.156,0.744873,-0.206299,0.618164,1.524390,0.091463,-2.621951,1
11:30:21.214,0.749512,-0.208740,0.612305,1.463415,0.365854,-1.829268,1
11:30:21.228,0.749023,-0.215088,0.614746,1.371951,-0.091463,-1.341463,1
11:30:21.278,0.750244,-0.216309,0.615234,1.158537,0.030488,-1.158537,1
11:30:21.309,0.749023,-0.213379,0.612793,0.914634,0.548781,-0.823171,1
11:30:21.350,0.746338,-0.208740,0.622559,0.670732,0.060976,-0.487805,1
11:30:21.362,0.745117,-0.208008,0.607422,-0.060976,-0.335366,-1.219512,1
11:30:21.409,0.746826,-0.202637,0.606445,-0.823171,-1.463415,-2.042683,1
11:30:21.442,0.748291,-0.205322,0.602051,0.457317,-2.560976,-2.774390,1
11:30:21.457,0.753906,-0.193359,0.596680,0.579268,-2.926829,-3.048780,1
11:30:21.490,0.760254,-0.197998,0.604492,1.128049,-3.353659,-3.536585,1
11:30:21.523,0.764404,-0.190918,0.595215,-0.182927,-3.932927,-3.719512,1
11:30:21.564,0.766602,-0.192627,0.591797,1.890244,-3.902439,-3.018293,1
11:30:21.597,0.788086,-0.216309,0.586182,5.213415,-2.774390,-2.378049,1
11:30:21.630,0.794922,-0.185791,0.621582,-2.286585,0.762195,-0.792683,1
11:30:21.661,0.788086,-0.196777,0.634277,-5.000000,4.176829,-4.115854,1
11:30:21.694,0.760742,-0.200439,0.614014,-5.213415,4.542683,-6.646342,1
11:30:21.735,0.755127,-0.174316,0.587158,-11.067074,3.231707,-7.621952,1
11:30:21.749,0.760498,-0.201416,0.605225,-5.335366,1.250000,-9.939025,1
11:30:21.797,0.759766,-0.194336,0.591553,-2.286585,2.134146,-5.701220,1
11:30:21.828,0.766846,-0.233154,0.615967,2.835366,1.554878,-3.109756,1
11:30:21.840,0.782959,-0.220459,0.614258,1.554878,3.536585,-0.335366,1
11:30:21.893,0.824219,-0.202637,0.594238,-7.408537,4.054878,-1.250000,1
11:30:21.935,0.808594,-0.139404,0.575928,-9.634147,4.207317,-1.371951,1
11:30:21.943,0.761719,-0.186279,0.561768,6.219512,0.823171,1.280488,1
11:30:21.991,0.735352,-0.170654,0.552246,7.530488,-0.579268,-1.036585,1
11:30:22.028,0.801025,-0.184326,0.580078,2.439024,0.670732,-1.859756,1
11:30:22.039,0.817383,-0.217773,0.629883,0.243902,3.384146,-1.707317,1
11:30:22.090,0.783936,-0.197510,0.674561,-4.756098,5.762195,-0.762195,1
11:30:22.126,0.747070,-0.203857,0.645508,-3.719512,6.859756,-1.676829,1
11:30:22.135,0.730713,-0.198486,0.623535,-3.567073,7.500000,-3.231707,1
11:30:22.167,0.718262,-0.196289,0.632080,-4.207317,5.579268,-4.756098,1
11:30:22.223,0.711182,-0.196533,0.608154,-2.682927,2.256098,-6.676829,1
11:30:22.258,0.721436,-0.205322,0.593750,-0.243902,0.823171,-7.378049,1
11:30:22.271,0.740967,-0.198730,0.603027,-1.798781,-0.304878,-6.676829,1
11:30:22.305,0.748047,-0.208496,0.601318,-1.768293,-0.975610,-6.646342,1
11:30:22.349,0.752930,-0.214355,0.579346,2.317073,-3.170732,-5.426829,1
11:30:22.376,0.768066,-0.208252,0.599854,-0.213415,-3.963415,-4.420732,1
11:30:22.409,0.771484,-0.199707,0.588379,2.225610,-3.475610,-2.682927,1
11:30:22.445,0.779053,-0.210205,0.599365,1.829268,-2.225610,-0.792683,1
11:30:22.473,0.778564,-0.187500,0.605225,1.402439,-1.341463,-0.823171,1
11:30:22.509,0.771240,-0.194580,0.604492,3.475610,-1.707317,-0.853659,1
11:30:22.551,0.778564,-0.182373,0.608887,1.829268,-0.091463,-0.670732,1
11:30:22.578,0.773682,-0.185059,0.610352,2.195122,1.250000,-0.884146,1
11:30:22.609,0.770508,-0.181152,0.619873,2.042683,1.432927,-1.219512,1
11:30:22.618,0.766846,-0.171875,0.610840,-1.798781,2.347561,-2.225610,1
11:30:22.676,0.768555,-0.173828,0.612305,-0.731707,2.347561,-2.347561,1
11:30:22.718,0.769531,-0.180176,0.601562,0.000000,1.890244,-2.012195,1
11:30:22.725,0.773438,-0.179932,0.602295,-1.615854,1.585366,-2.621951,1
11:30:22.774,0.770752,-0.186279,0.599365,0.701220,1.371951,-2.439024,1
11:30:25.059,0.759766,-0.217041,0.598633,1.158537,0.609756,-1.859756,1
11:30:25.125,0.761963,-0.222412,0.597900,1.646342,1.493902,-1.859756,1
11:30:25.152,0.765137,-0.212891,0.598389,-0.701220,0.762195,-2.500000,1
11:30:25.164,0.762695,-0.223145,0.597656,2.713415,-0.365854,-2.134146,1
11:30:25.204,0.762207,-0.222900,0.593262,0.945122,0.396341,-1.920732,1
11:30:25.240,0.757080,-0.215332,0.598145,0.518293,-0.060976,-1.890244,1
11:30:25.274,0.757324,-0.222900,0.596680,2.469512,0.030488,-1.951220,1
11:30:25.306,0.764404,-0.222656,0.605469,0.701220,-0.060976,-1.493902,1
11:30:25.338,0.761963,-0.225586,0.601318,1.859756,-0.030488,-1.463415,1
11:30:25.371,0.755859,-0.223145,0.595215,1.189024,0.243902,-1.615854,1
11:30:25.403,0.759521,-0.221191,0.609131,0.457317,0.762195,-1.493902,1
11:30:25.441,0.759277,-0.216553,0.599365,1.310976,0.914634,-0.853659,1
11:30:25.473,0.754883,-0.217773,0.601562,2.042683,0.396341,-0.853659,1
11:30:25.507,0.766602,-0.213867,0.600830,1.280488,0.609756,-1.280488,1
11:30:25.522,0.762207,-0.217773,0.595459,3.445122,0.365854,-1.371951,1
11:30:25.574,0.760010,-0.219727,0.601074,3.170732,0.091463,-1.951220,1
11:30:25.608,0.763916,-0.201660,0.583008,1.859756,0.304878,-1.493902,1
11:30:25.640,0.767334,-0.210449,0.588867,-0.182927,-0.213415,-2.012195,1
11:30:25.677,0.777588,-0.213867,0.587891,2.774390,-1.981707,-1.676829,1
11:30:25.713,0.770020,-0.213867,0.562256,1.128049,-2.500000,-1.646342,1
11:30:25.745,0.771240,-0.211914,0.581543,-1.585366,-1.859756,-3.780488,1
11:30:25.775,0.765625,-0.184326,0.568848,-14.298780,-0.121951,-10.213415,1
11:30:25.809,0.768311,-0.220703,0.571533,-3.932927,1.585366,-5.975610,1
11:30:25.840,0.788574,-0.248047,0.611816,-8.079268,5.060976,-5.365854,1
11:30:25.852,0.772705,-0.217285,0.637207,-19.664635,4.542683,-9.786586,1
11:30:25.885,0.746338,-0.242920,0.607422,-6.676829,2.500000,-10.853659,1
11:30:25.926,0.771240,-0.259277,0.570312,0.945122,1.189024,-5.762195,1
11:30:25.961,0.785400,-0.213135,0.589355,-4.603659,2.652439,-3.048780,1
11:30:25.989,0.834473,-0.244385,0.605469,2.713415,4.786585,2.134146,1
11:30:26.024,0.803955,-0.205322,0.625000,-0.640244,6.676829,3.810976,1
11:30:26.038,0.802490,-0.181152,0.621582,-9.756098,9.969512,4.756098,1
11:30:26.092,0.766846,-0.153076,0.538818,-0.213415,10.945122,6.341464,1
11:30:26.125,0.742432,-0.185303,0.628174,0.731707,8.628049,5.365854,1
11:30:26.157,0.771240,-0.262207,0.574463,7.347561,7.378049,0.914634,1
11:30:26.191,0.766113,-0.198486,0.583740,4.329268,8.658537,-0.487805,1
11:30:26.228,0.733643,-0.208984,0.612061,-1.676829,7.530488,-2.713415,1
11:30:26.238,0.725098,-0.207275,0.610352,-1.707317,5.975610,-5.548780,1
11:30:26.267,0.717041,-0.214111,0.579590,-0.060976,3.079268,-7.103659,1
11:30:26.323,0.725342,-0.208252,0.598877,-2.164634,1.371951,-6.951220,1
11:30:26.337,0.726074,-0.226318,0.602539,1.676829,-1.310976,-7.378049,1
11:30:26.370,0.734375,-0.246826,0.595459,5.914634,-3.292683,-6.676829,1
11:30:26.404,0.738037,-0.239746,0.599854,4.207317,-2.317073,-6.432927,1
11:30:26.441,0.755859,-0.240234,0.623779,1.981707,-0.213415,-3.780488,1
11:30:26.475,0.760742,-0.245361,0.628418,1.189024,0.091463,-3.109756,1
11:30:26.506,0.747803,-0.229736,0.618408,0.823171,0.152439,-2.682927,1
11:30:26.539,0.739502,-0.223633,0.623291,3.658537,-2.439024,-2.073171,1
11:30:26.576,0.741211,-0.218262,0.589355,4.054878,-2.896342,-2.591464,1
11:30:26.615,0.755615,-0.202637,0.609375,6.310976,-2.500000,-2.134146,1
11:30:26.652,0.754639,-0.215820,0.617920,2.926829,-1.158537,-1.737805,1
11:30:26.679,0.772949,-0.205078,0.624023,0.274390,0.274390,-0.579268,1
11:30:26.712,0.773193,-0.211670,0.633057,3.201220,0.762195,0.274390,1
11:30:26.723,0.764893,-0.207520,0.619629,4.420732,1.036585,-0.304878,1
11:30:26.780,0.754395,-0.182129,0.612793,1.402439,0.945122,-1.737805,1
11:30:26.828,0.754639,-0.186523,0.621582,-1.036585,1.250000,-1.646342,1
11:30:26.841,0.757324,-0.205078,0.621338,3.536585,0.731707,-0.518293,1
11:30:26.879,0.758789,-0.199951,0.610352,-0.792683,1.280488,-2.042683,1
11:30:26.884,0.759033,-0.190430,0.619385,-0.304878,1.310976,-2.347561,1
11:30:29.438,0.756592,-0.223877,0.607422,1.707317,-0.213415,-1.463415,1
11:30:29.474,0.754883,-0.224121,0.610596,0.121951,0.792683,-1.524390,1
11:30:29.505,0.755859,-0.223633,0.609863,0.487805,1.036585,-1.463415,1
11:30:29.543,0.751221,-0.232666,0.612061,1.371951,0.945122,-1.158537,1
11:30:29.555,0.754639,-0.222656,0.606201,0.792683,1.067073,-0.884146,1
11:30:29.587,0.750732,-0.222168,0.608398,0.609756,0.609756,-1.036585,1
11:30:29.644,0.752686,-0.220215,0.605225,-0.182927,0.457317,-1.768293,1
11:30:29.680,0.751221,-0.223633,0.601318,1.829268,0.304878,-1.097561,1
11:30:29.709,0.756592,-0.221191,0.605713,-0.365854,0.548781,-1.371951,1
11:30:29.747,0.759033,-0.219482,0.604004,0.304878,0.182927,-1.585366,1
11:30:29.756,0.759766,-0.229736,0.600830,2.500000,-0.152439,-0.579268,1
11:30:29.811,0.758545,-0.216064,0.602295,1.128049,-0.274390,-0.548781,1
11:30:29.845,0.756348,-0.217529,0.605713,1.402439,-0.152439,-0.945122,1
11:30:29.877,0.750488,-0.220459,0.604492,0.579268,-0.579268,-1.341463,1
11:30:29.908,0.756836,-0.208008,0.601807,-1.067073,-0.701220,-1.341463,1
11:30:29.945,0.755371,-0.214600,0.598389,-3.323171,-0.792683,-2.530488,1
11:30:29.955,0.755371,-0.207520,0.588867,-2.103659,-2.713415,-3.750000,1
11:30:29.987,0.761719,-0.218506,0.592285,-4.176829,-2.286585,-4.146341,1
11:30:30.023,0.785400,-0.219971,0.582275,-4.085366,0.243902,-3.658537,1
11:30:30.053,0.790527,-0.238281,0.604004,-11.829268,7.500000,-3.993902,1
11:30:30.109,0.773438,-0.204102,0.625488,-14.878049,6.768293,-7.378049,1
11:30:30.149,0.740967,-0.225830,0.612793,-7.835366,3.719512,-5.792683,1
11:30:30.157,0.747070,-0.239990,0.614014,-1.920732,2.743902,-4.451220,1
11:30:30.189,0.784668,-0.277100,0.596924,7.804878,2.530488,-3.231707,1
11:30:30.221,0.761230,-0.230469,0.602783,7.347561,3.140244,-0.487805,1
11:30:30.250,0.802979,-0.219482,0.626953,2.286585,5.609756,1.554878,1
11:30:30.313,0.786133,-0.218750,0.615723,-0.548781,5.853659,2.591464,1
11:30:30.321,0.770508,-0.186035,0.576660,-6.646342,5.670732,1.310976,1
11:30:30.347,0.758789,-0.195801,0.583496,-5.823171,5.365854,5.884147,1
11:30:30.389,0.752197,-0.267822,0.603516,7.621952,1.768293,4.634147,1
11:30:30.422,0.775879,-0.231689,0.570557,6.951220,2.621951,2.164634,1
11:30:30.455,0.768799,-0.209961,0.595215,1.128049,4.359756,0.274390,1
11:30:30.490,0.738037,-0.226074,0.626221,-2.469512,5.182927,-1.524390,1
11:30:30.522,0.723389,-0.218262,0.618408,1.006098,4.207317,-1.554878,1
11:30:30.534,0.715332,-0.228027,0.600586,-0.945122,2.439024,-5.091464,1
11:30:30.591,0.717041,-0.209717,0.604248,-1.250000,1.798781,-6.676829,1
11:30:30.624,0.730957,-0.221191,0.629150,-4.847561,1.768293,-8.048780,1
11:30:30.658,0.735107,-0.226562,0.616943,-2.286585,1.615854,-8.018292,1
11:30:30.699,0.737549,-0.240234,0.607422,-1.250000,0.365854,-6.890244,1
11:30:30.707,0.739502,-0.240234,0.612305,-2.012195,-1.097561,-6.920732,1
11:30:30.740,0.738770,-0.239502,0.615234,0.000000,-3.109756,-5.152439,1
11:30:30.782,0.739014,-0.228760,0.590576,1.981707,-2.987805,-5.304878,1
11:30:30.814,0.738525,-0.229004,0.604492,3.658537,-3.323171,-5.396342,1
11:30:30.846,0.752197,-0.218018,0.616455,-1.371951,-3.018293,-4.939024,1
11:30:30.881,0.761230,-0.214844,0.598877,-3.262195,-1.280488,-4.603659,1
11:30:30.915,0.769531,-0.221191,0.609131,-0.762195,0.152439,-3.353659,1
11:30:30.922,0.774902,-0.241455,0.631592,-0.060976,0.945122,-1.554878,1
11:30:30.977,0.772705,-0.233643,0.629395,2.469512,0.762195,-0.884146,1
11:30:31.014,0.760498,-0.212158,0.603760,-0.609756,1.524390,-1.128049,1
11:30:31.031,0.760010,-0.211914,0.611328,2.469512,2.286585,-1.189024,1
11:30:31.072,0.753418,-0.214355,0.624756,-0.853659,1.920732,-1.707317,1
11:30:31.087,0.750732,-0.204102,0.606689,0.884146,1.585366,-2.042683,1
11:30:31.121,0.747314,-0.216553,0.610596,-0.304878,1.280488,-2.164634,1
11:30:31.186,0.755859,-0.215332,0.618164,0.853659,1.219512,-1.615854,1
11:30:33.449,0.754883,-0.212891,0.614990,-0.152439,1.128049,-1.829268,1
11:30:33.500,0.752197,-0.217041,0.611328,-0.060976,1.280488,-1.768293,1
11:30:33.523,0.752686,-0.223145,0.611816,-0.274390,1.006098,-1.768293,1
11:30:33.562,0.759033,-0.221191,0.614746,0.030488,1.280488,-1.402439,1
11:30:33.627,0.753662,-0.223389,0.604248,0.152439,1.646342,-1.493902,1
11:30:33.641,0.756592,-0.216309,0.614990,-0.396341,0.579268,-2.317073,1
11:30:33.671,0.758301,-0.212646,0.616943,0.274390,1.189024,-1.524390,1
11:30:33.706,0.754395,-0.219482,0.612061,-0.091463,1.402439,-1.097561,1
11:30:33.742,0.745850,-0.209961,0.614502,0.152439,0.670732,-1.371951,1
11:30:33.767,0.748047,-0.218994,0.607422,2.073171,0.701220,-1.554878,1
11:30:33.805,0.747070,-0.220703,0.613281,0.548781,0.365854,-1.158537,1
11:30:33.832,0.751709,-0.219482,0.611816,0.182927,1.219512,-1.371951,1
11:30:33.877,0.752686,-0.224121,0.626709,2.073171,0.487805,-0.701220,1
11:30:33.911,0.756836,-0.216064,0.604248,0.914634,0.426829,-0.518293,1
11:30:33.937,0.750732,-0.220459,0.610107,1.402439,0.762195,-0.487805,1
11:30:33.969,0.749268,-0.216553,0.601807,-0.304878,-0.060976,-0.975610,1
11:30:34.015,0.747070,-0.216553,0.598145,-0.182927,-1.006098,-1.737805,1
11:30:34.052,0.758057,-0.212158,0.593018,0.945122,-1.219512,-2.560976,1
11:30:34.065,0.764648,-0.215088,0.589355,1.250000,-1.737805,-2.652439,1
11:30:34.092,0.762695,-0.193359,0.559326,0.213415,-2.987805,-6.341464,1
11:30:34.122,0.793213,-0.176270,0.572021,-0.640244,-1.280488,-2.987805,1
11:30:34.165,0.777832,-0.213379,0.604736,-5.243903,2.256098,-5.914634,1
11:30:34.187,0.755127,-0.186035,0.608154,-8.414635,2.134146,-10.487805,1
11:30:34.241,0.775391,-0.236572,0.642334,-6.250000,0.548781,-6.432927,1
11:30:34.249,0.764404,-0.247803,0.614990,-5.426829,0.213415,-5.945122,1
11:30:34.302,0.764404,-0.221924,0.600098,-2.621951,0.762195,-6.463415,1
11:30:34.341,0.781494,-0.212891,0.632080,-5.121951,3.201220,-2.804878,1
11:30:34.348,0.806885,-0.233154,0.648193,-7.012195,4.512195,-0.243902,1
11:30:34.407,0.794678,-0.189941,0.631348,-18.109756,7.591464,-1.707317,1
11:30:34.422,0.775391,-0.137451,0.579834,-11.128049,10.426829,-0.426829,1
11:30:34.441,0.773438,-0.234375,0.614014,-2.682927,8.414635,0.914634,1
11:30:34.534,0.781250,-0.212891,0.533203,3.689024,5.731708,-3.384146,1
11:30:34.544,0.772217,-0.230957,0.562988,1.493902,6.006098,-6.310976,1
11:30:34.553,0.780029,-0.160645,0.661377,-13.780488,5.274390,-8.445122,1
11:30:34.592,0.733643,-0.227539,0.602051,-3.810976,3.048780,-8.018292,1
11:30:34.633,0.718994,-0.227295,0.594727,-1.768293,1.402439,-9.024390,1
11:30:34.642,0.721680,-0.209717,0.635010,-1.280488,-1.768293,-9.359756,1
11:30:34.673,0.721924,-0.244873,0.597168,0.426829,-3.079268,-9.451220,1
11:30:34.705,0.735107,-0.233154,0.581055,2.591464,-2.896342,-8.628049,1
11:30:34.736,0.741943,-0.256592,0.624756,5.457317,-3.109756,-5.579268,1
11:30:34.769,0.755615,-0.262207,0.611328,7.347561,-3.536585,-3.292683,1
11:30:34.804,0.760254,-0.254150,0.584473,6.829268,-2.835366,-1.493902,1
11:30:34.841,0.769287,-0.235840,0.605469,2.408537,-0.884146,-0.701220,1
11:30:34.883,0.765869,-0.235352,0.617676,2.012195,1.097561,0.121951,1
11:30:34.915,0.763672,-0.207031,0.621582,0.121951,1.158537,0.365854,1
11:30:34.947,0.757568,-0.202637,0.603516,0.274390,0.945122,0.030488,1
11:30:34.979,0.765869,-0.192627,0.594727,0.518293,2.500000,0.579268,1
11:30:35.019,0.770752,-0.202148,0.624023,0.457317,1.951220,0.762195,1
11:30:35.026,0.757812,-0.196533,0.611816,0.487805,2.073171,0.152439,1
11:30:35.077,0.769531,-0.211426,0.607178,4.664634,1.585366,0.762195,1
11:30:35.112,0.769287,-0.201660,0.602295,1.798781,1.585366,0.152439,1
11:30:35.120,0.761719,-0.198242,0.601074,0.274390,1.371951,-0.640244,1
11:30:38.070,0.747803,-0.238037,0.613037,2.195122,1.128049,-2.073171,1
11:30:38.115,0.749023,-0.221191,0.614746,-0.335366,0.884146,-2.256098,1
11:30:38.134,0.746826,-0.222656,0.608398,-1.402439,0.823171,-2.500000,1
11:30:38.161,0.748535,-0.226562,0.607422,2.103659,-0.426829,-2.134146,1
11:30:38.202,0.741211,-0.221680,0.609375,-0.792683,-0.304878,-2.225610,1
11:30:38.233,0.745117,-0.223145,0.607910,1.280488,-0.670732,-2.743902,1
11:30:38.266,0.740723,-0.226562,0.613281,-0.365854,-0.792683,-2.591464,1
11:30:38.304,0.754639,-0.225586,0.613525,0.457317,-0.975610,-2.439024,1
11:30:38.341,0.757812,-0.231445,0.611084,0.853659,-0.914634,-1.524390,1
11:30:38.349,0.754883,-0.223877,0.614746,0.762195,-0.518293,-1.554878,1
11:30:38.402,0.756592,-0.223145,0.615967,1.189024,0.030488,-0.335366,1
11:30:38.438,0.753418,-0.223389,0.626953,-0.213415,0.823171,0.274390,1
11:30:38.449,0.753174,-0.230225,0.622803,-0.518293,0.182927,-1.829268,1
11:30:38.496,0.752686,-0.218750,0.604004,-2.012195,-0.975610,-3.140244,1
11:30:38.532,0.739990,-0.216064,0.585449,1.920732,-3.353659,-3.689024,1
11:30:38.542,0.736328,-0.194092,0.580322,1.128049,-3.170732,-5.152439,1
11:30:38.599,0.795410,-0.218018,0.578857,-0.152439,1.280488,-4.115854,1
11:30:38.608,0.810791,-0.235107,0.635498,-8.506098,4.695122,-3.384146,1
11:30:38.659,0.788574,-0.236084,0.658447,-2.134146,4.420732,-3.201220,1
11:30:38.693,0.732666,-0.214355,0.627197,-3.963415,4.603659,-4.664634,1
11:30:38.731,0.734863,-0.203369,0.597168,-6.585366,1.493902,-3.323171,1
11:30:38.740,0.732422,-0.236572,0.567383,0.518293,0.945122,-2.012195,1
11:30:38.793,0.762695,-0.230957,0.582031,2.012195,0.091463,-3.567073,1
11:30:38.826,0.778809,-0.218750,0.618164,-0.975610,1.371951,-3.140244,1
11:30:38.857,0.791504,-0.259766,0.641602,-1.676829,2.987805,-0.609756,1
11:30:38.891,0.771240,-0.180176,0.613281,-11.920732,3.810976,-3.719512,1
11:30:38.925,0.768066,-0.170166,0.569336,-4.481708,3.902439,1.463415,1
11:30:38.945,0.745361,-0.234619,0.607178,3.109756,3.475610,0.243902,1
11:30:38.976,0.786377,-0.187256,0.600830,-1.768293,3.506098,-0.914634,1
11:30:39.010,0.766846,-0.236084,0.608643,-3.414634,4.542683,-5.213415,1
11:30:39.041,0.752686,-0.210205,0.623535,-3.475610,5.060976,-5.152439,1
11:30:39.074,0.729492,-0.217773,0.625244,-3.262195,3.810976,-6.006098,1
11:30:39.111,0.721680,-0.221191,0.617920,0.121951,1.890244,-6.890244,1
11:30:39.166,0.720947,-0.220703,0.609863,2.682927,0.914634,-6.006098,1
11:30:39.189,0.742432,-0.227051,0.613525,0.304878,0.487805,-6.128049,1
11:30:39.221,0.750977,-0.238037,0.611572,0.152439,0.823171,-5.274390,1
11:30:39.230,0.747803,-0.235596,0.612793,1.859756,0.762195,-3.841464,1
11:30:39.276,0.747559,-0.225830,0.609131,0.701220,0.335366,-2.926829,1
11:30:39.314,0.760254,-0.224121,0.604736,2.012195,0.365854,-1.737805,1
11:30:39.325,0.759033,-0.226318,0.605469,0.823171,1.402439,-1.554878,1
11:30:39.372,0.752930,-0.208496,0.630371,0.823171,1.128049,-1.554878,1
11:30:39.407,0.749268,-0.197754,0.619385,-0.213415,1.006098,-1.493902,1
11:30:39.447,0.749268,-0.208496,0.601807,1.128049,1.646342,-1.890244,1
11:30:39.474,0.760254,-0.205322,0.612793,1.493902,1.768293,-1.067073,1
11:30:39.511,0.760010,-0.221924,0.617920,2.042683,1.310976,-0.609756,1
11:30:39.520,0.760742,-0.207275,0.616455,0.914634,1.371951,-1.402439,1
11:30:39.572,0.752197,-0.204346,0.608398,0.060976,0.823171,-1.890244,1
11:30:39.603,0.753174,-0.205811,0.606201,0.701220,0.518293,-1.646342,1
11:30:39.614,0.757080,-0.212158,0.598877,1.006098,0.304878,-1.219512,1
11:30:39.650,0.761230,-0.210205,0.606934,0.609756,0.579268,-1.158537,1
11:30:42.628,0.754150,-0.224854,0.603027,-0.640244,0.396341,-1.920732,1
11:30:42.685,0.754639,-0.225586,0.600586,0.762195,0.030488,-1.829268,1
11:30:42.714,0.755859,-0.222412,0.605469,-1.859756,0.060976,-2.225610,1
11:30:42.754,0.754150,-0.225830,0.606934,2.987805,0.426829,-1.798781,1
11:30:42.810,0.761230,-0.225342,0.607422,0.182927,0.304878,-1.493902,1
11:30:42.819,0.755371,-0.230225,0.612793,-0.457317,-0.060976,-1.829268,1
11:30:42.851,0.751953,-0.232178,0.612061,1.554878,1.189024,-1.036585,1
11:30:42.881,0.747803,-0.224609,0.616211,0.914634,1.310976,-0.426829,1
11:30:42.915,0.750244,-0.227539,0.606689,0.365854,1.676829,-1.067073,1
11:30:42.953,0.754883,-0.230469,0.614258,2.225610,1.128049,-0.548781,1
11:30:42.980,0.758789,-0.221191,0.607666,0.426829,1.981707,-0.182927,1
11:30:43.015,0.758057,-0.234375,0.602295,1.189024,2.225610,-0.335366,1
11:30:43.056,0.756348,-0.225342,0.599121,1.097561,1.006098,-0.152439,1
11:30:43.087,0.766113,-0.233643,0.587891,1.371951,0.762195,-0.670732,1
11:30:43.120,0.763184,-0.226074,0.583984,2.012195,0.091463,-0.426829,1
11:30:43.152,0.765869,-0.213867,0.585693,1.219512,-0.243902,-0.762195,1
11:30:43.185,0.764404,-0.225098,0.585205,2.439024,-1.676829,-0.853659,1
11:30:43.225,0.752686,-0.209473,0.558594,1.128049,-2.439024,-2.957317,1
11:30:43.234,0.755127,-0.215088,0.579346,-1.798781,-2.500000,-5.609756,1
11:30:43.294,0.775879,-0.176758,0.571289,-10.670732,4.176829,-4.390244,1
11:30:43.308,0.798828,-0.261719,0.653320,-15.030488,6.341464,-8.140244,1
11:30:43.333,0.778076,-0.224609,0.634521,-24.481709,8.323171,-11.615854,1
11:30:43.389,0.729248,-0.216797,0.606934,-16.859756,5.000000,-10.365854,1
11:30:43.429,0.698242,-0.263672,0.596191,-6.676829,1.829268,-9.847561,1
11:30:43.450,0.773926,-0.257568,0.604736,-0.579268,2.591464,-4.756098,1
11:30:43.490,0.792969,-0.259766,0.612305,1.432927,3.689024,-2.164634,1
11:30:43.497,0.805420,-0.242432,0.618408,2.469512,4.085366,0.579268,1
11:30:43.527,0.777100,-0.208496,0.596191,0.396341,3.963415,0.579268,1
11:30:43.586,0.782227,-0.197266,0.586914,-1.432927,4.024390,1.951220,1
11:30:43.596,0.765869,-0.191162,0.562988,5.335366,2.560976,5.457317,1
11:30:43.624,0.733643,-0.194824,0.547119,1.402439,2.317073,-2.804878,1
11:30:43.654,0.786133,-0.203369,0.629883,3.902439,1.646342,-0.548781,1
11:30:43.694,0.763428,-0.253174,0.632812,0.243902,3.993902,-0.975610,1
11:30:43.718,0.747803,-0.226318,0.638184,-1.524390,3.475610,-4.420732,1
11:30:43.752,0.708984,-0.216064,0.613525,-1.067073,1.920732,-6.067073,1
11:30:43.785,0.704834,-0.220459,0.601074,-0.792683,0.853659,-7.621952,1
11:30:43.822,0.711182,-0.227295,0.628174,-2.591464,-0.762195,-8.231708,1
11:30:43.855,0.728760,-0.235107,0.608398,-2.621951,-1.402439,-9.481708,1
11:30:43.888,0.746826,-0.234619,0.590088,-1.920732,0.396341,-9.756098,1
11:30:43.920,0.758057,-0.244873,0.620605,-4.481708,0.274390,-7.560976,1
11:30:43.953,0.760742,-0.259277,0.602051,2.225610,-0.579268,-4.573171,1
11:30:43.991,0.760254,-0.250977,0.600098,2.500000,-0.548781,-1.402439,1
11:30:44.027,0.765625,-0.246582,0.608643,3.993902,-1.006098,-0.182927,1
11:30:44.056,0.760986,-0.234863,0.597412,4.024390,-0.701220,-0.030488,1
11:30:44.088,0.754639,-0.212402,0.610352,-0.304878,-0.030488,-1.432927,1
11:30:44.123,0.757080,-0.210938,0.600098,1.829268,0.823171,-0.945122,1
11:30:44.155,0.763428,-0.212402,0.607178,-0.152439,1.371951,-1.158537,1
11:30:44.190,0.768555,-0.220703,0.615234,1.250000,1.493902,-0.731707,1
11:30:44.203,0.765869,-0.213379,0.608887,0.060976,1.768293,-0.548781,1
11:30:44.255,0.761719,-0.207275,0.604492,0.945122,1.006098,-0.365854,1
11:30:44.299,0.753662,-0.206299,0.602295,0.121951,1.189024,-0.884146,1
11:30:44.307,0.760010,-0.210693,0.597656,2.012195,0.274390,-1.829268,1
11:30:44.354,0.766846,-0.208984,0.601562,-0.121951,0.518293,-1.768293,1
11:30:47.626,0.774902,-0.224854,0.573975,3.384146,1.432927,-2.378049,1
11:30:47.664,0.787598,-0.239746,0.588379,2.103659,1.341463,-1.402439,1
11:30:47.690,0.777588,-0.229004,0.577148,-1.280488,1.615854,-1.920732,1
11:30:47.727,0.770020,-0.231934,0.571045,2.682927,0.457317,-1.128049,1
11:30:47.788,0.767090,-0.223389,0.567871,1.341463,-0.060976,-1.432927,1
11:30:47.794,0.769531,-0.225586,0.574707,1.250000,-1.006098,-2.042683,1
11:30:47.818,0.773682,-0.223145,0.569336,0.731707,-1.310976,-1.676829,1
11:30:47.861,0.774902,-0.225342,0.580566,2.774390,-1.646342,-0.670732,1
11:30:47.894,0.774902,-0.226318,0.575928,0.365854,-0.884146,-0.609756,1
11:30:47.926,0.777100,-0.225586,0.580811,3.262195,-1.463415,-0.609756,1
11:30:47.965,0.772461,-0.221191,0.581787,2.408537,-1.615854,-1.158537,1
11:30:47.997,0.770508,-0.213379,0.572266,2.743902,-1.189024,-2.073171,1
11:30:48.029,0.776611,-0.222656,0.584717,1.920732,-1.524390,-1.676829,1
11:30:48.066,0.781006,-0.225830,0.580811,3.506098,-1.128049,-1.981707,1
11:30:48.101,0.778076,-0.217041,0.573975,2.347561,-0.945122,-0.884146,1
11:30:48.137,0.781494,-0.218994,0.581787,2.012195,-0.548781,-1.585366,1
11:30:48.170,0.778564,-0.221191,0.563721,1.341463,-0.396341,-2.317073,1
11:30:48.199,0.786865,-0.217773,0.571777,1.128049,-0.609756,-2.652439,1
11:30:48.230,0.782959,-0.219971,0.569580,0.426829,0.457317,-2.347561,1
11:30:48.263,0.801270,-0.223389,0.564697,2.256098,1.280488,-1.707317,1
11:30:48.304,0.799072,-0.210205,0.577881,-4.908537,2.378049,-1.036585,1
11:30:48.319,0.805420,-0.200684,0.570068,-12.439025,8.079268,-7.103659,1
11:30:48.364,0.768311,-0.182129,0.599609,-17.347561,6.585366,-10.609756,1
11:30:48.398,0.767334,-0.199951,0.565430,-22.256098,3.262195,-11.463415,1
11:30:48.407,0.768799,-0.233154,0.569824,-8.414635,1.798781,-11.158537,1
11:30:48.454,0.793945,-0.271484,0.531738,-5.853659,1.097561,-9.054878,1
11:30:48.467,0.813721,-0.257812,0.584961,-0.274390,1.524390,-1.097561,1
11:30:48.501,0.833496,-0.281250,0.607666,5.640244,5.182927,5.792683,1
11:30:48.557,0.810059,-0.204346,0.618652,-3.201220,8.201220,6.006098,1
11:30:48.565,0.781982,-0.140381,0.580322,-1.128049,9.451220,5.304878,1
11:30:48.606,0.803223,-0.184814,0.564453,12.256098,5.731708,2.560976,1
11:30:48.638,0.788086,-0.164062,0.506348,11.402439,4.329268,-0.060976,1
11:30:48.675,0.786133,-0.188477,0.563477,9.969512,3.231707,-0.914634,1
11:30:48.714,0.772949,-0.192871,0.622070,1.798781,3.993902,-2.774390,1
11:30:48.746,0.753418,-0.209473,0.587402,-0.091463,3.292683,-4.756098,1
11:30:48.784,0.742188,-0.213379,0.557861,-0.487805,2.256098,-8.323171,1
11:30:48.818,0.740723,-0.204346,0.575195,-7.164634,1.585366,-10.457317,1
11:30:48.851,0.746338,-0.244385,0.592773,-3.597561,-0.335366,-9.908537,1
11:30:48.890,0.752930,-0.250000,0.576660,-1.371951,-1.036585,-7.804878,1
11:30:48.899,0.750488,-0.250488,0.578613,0.518293,-1.707317,-5.548780,1
11:30:48.952,0.757080,-0.245117,0.596436,1.554878,-2.103659,-4.390244,1
11:30:48.985,0.759766,-0.237793,0.589355,0.060976,-2.164634,-3.902439,1
11:30:49.016,0.766357,-0.230713,0.584229,1.646342,-1.798781,-2.804878,1
11:30:49.053,0.782715,-0.228516,0.596436,1.341463,-0.914634,-1.067073,1
11:30:49.093,0.788086,-0.221191,0.595703,0.121951,0.000000,-0.121951,1
11:30:49.101,0.782959,-0.214355,0.590576,2.286585,1.310976,0.091463,1
11:30:49.129,0.775391,-0.196289,0.593506,1.097561,0.853659,-0.670732,1
11:30:49.164,0.773438,-0.199707,0.595947,-0.945122,0.792683,-0.579268,1
11:30:49.197,0.778076,-0.201904,0.588867,2.621951,0.640244,-0.091463,1
11:30:49.249,0.774414,-0.196533,0.586914,-0.091463,1.432927,-0.762195,1
11:30:49.289,0.777100,-0.200928,0.600098,1.128049,1.432927,-0.823171,1
11:30:49.301,0.774170,-0.209961,0.593262,0.213415,1.768293,-1.097561,1
11:30:49.348,0.771729,-0.208496,0.582764,0.091463,1.798781,-1.250000,1
11:30:49.358,0.770996,-0.201904,0.587158,-1.189024,1.341463,-1.646342,1
11:30:49.379,0.770264,-0.216309,0.578369,2.500000,0.792683,-0.914634,1
11:30:49.440,0.777832,-0.218018,0.577881,1.158537,1.280488,-0.609756,1
11:30:52.185,0.764893,-0.208008,0.595459,-1.006098,1.554878,-2.347561,1
11:30:52.364,0.760254,-0.220459,0.592773,1.432927,0.823171,-1.981707,1
11:30:52.386,0.768799,-0.224854,0.599609,1.310976,0.396341,-1.006098,1
11:30:52.411,0.767822,-0.231445,0.588135,2.012195,0.396341,-0.945122,1
11:30:52.417,0.761230,-0.214600,0.584717,3.414634,-0.335366,-1.371951,1
11:30:52.424,0.766113,-0.210449,0.589600,0.731707,-1.097561,-1.829268,1
11:30:52.431,0.771484,-0.220459,0.588135,0.762195,-1.006098,-1.463415,1
11:30:52.439,0.774658,-0.224365,0.574463,1.219512,-0.152439,-1.006098,1
11:30:52.445,0.769287,-0.218994,0.593506,1.036585,-0.762195,-0.487805,1
11:30:52.503,0.766602,-0.215820,0.592285,1.890244,-1.067073,-0.609756,1
11:30:52.511,0.769531,-0.215820,0.581543,1.829268,-1.371951,-2.225610,1
11:30:52.561,0.767578,-0.197510,0.576172,1.097561,-2.073171,-2.835366,1
11:30:52.597,0.766357,-0.210449,0.590088,4.237805,-3.993902,-2.682927,1
11:30:52.606,0.759521,-0.195312,0.548828,3.932927,-3.750000,-4.695122,1
11:30:52.656,0.821289,-0.209229,0.567627,0.182927,0.853659,-2.774390,1
11:30:52.663,0.822266,-0.203613,0.609863,-9.329268,4.237805,-2.591464,1
11:30:52.722,0.799805,-0.220215,0.603516,-6.981708,4.603659,-6.798780,1
11:30:52.755,0.750488,-0.190186,0.577393,-12.103659,2.256098,-8.750000,1
11:30:52.788,0.770020,-0.182861,0.568115,-12.896341,0.548781,-6.890244,1
11:30:52.804,0.754150,-0.215576,0.557373,-4.908537,0.731707,-7.225610,1
11:30:52.832,0.779541,-0.234863,0.567383,-0.792683,-0.853659,-5.304878,1
11:30:52.865,0.826416,-0.241211,0.616455,-4.024390,1.798781,-2.317073,1
11:30:52.896,0.824707,-0.242676,0.632324,0.823171,5.396342,1.951220,1
11:30:52.930,0.799805,-0.204346,0.617432,-4.146341,7.164634,1.737805,1
11:30:52.963,0.784424,-0.165283,0.587891,-4.115854,7.835366,2.560976,1
11:30:53.002,0.789551,-0.187988,0.508057,8.445122,5.457317,1.676829,1
11:30:53.036,0.769531,-0.159424,0.542969,4.298780,4.085366,-0.670732,1
11:30:53.068,0.792480,-0.154297,0.549561,0.823171,5.060976,-0.884146,1
11:30:53.100,0.788330,-0.217041,0.604980,-3.414634,6.432927,-3.262195,1
11:30:53.134,0.757812,-0.192871,0.614502,-4.725610,5.518293,-5.975610,1
11:30:53.167,0.740967,-0.185059,0.583984,-2.835366,3.414634,-7.743903,1
11:30:53.207,0.743164,-0.196289,0.578125,-2.073171,2.652439,-7.896342,1
11:30:53.240,0.762207,-0.215088,0.606689,-2.042683,2.743902,-7.012195,1
11:30:53.275,0.755371,-0.222900,0.598389,2.286585,1.067073,-5.762195,1
11:30:53.284,0.758545,-0.219971,0.591064,-0.121951,1.189024,-5.274390,1
11:30:53.335,0.769775,-0.215088,0.583984,-1.432927,0.945122,-5.274390,1
11:30:53.372,0.764160,-0.220459,0.587158,-1.585366,-0.030488,-4.024390,1
11:30:53.380,0.756104,-0.220947,0.579102,1.158537,-2.317073,-4.237805,1
11:30:53.435,0.755127,-0.201904,0.577637,0.609756,-2.713415,-4.176829,1
11:30:53.471,0.764648,-0.205811,0.590820,1.006098,-2.560976,-3.963415,1
11:30:53.500,0.772705,-0.207764,0.593750,1.341463,-1.890244,-2.713415,1
11:30:53.533,0.775635,-0.212158,0.595215,1.036585,-1.006098,-1.280488,1
11:30:53.570,0.777588,-0.211670,0.605225,-0.396341,0.396341,-0.762195,1
11:30:53.577,0.773438,-0.206787,0.605469,-0.304878,0.182927,-0.518293,1
11:30:53.614,0.774658,-0.208740,0.590820,-0.304878,0.701220,-0.335366,1
11:30:53.666,0.773682,-0.201904,0.585449,-0.518293,0.640244,0.609756,1
11:30:53.722,0.768066,-0.203857,0.591064,0.487805,-0.091463,-0.091463,1
11:30:53.731,0.774902,-0.198730,0.585693,0.548781,0.213415,-0.121951,1
11:30:53.762,0.783691,-0.201904,0.587402,-0.823171,0.945122,0.457317,1
11:30:53.797,0.780518,-0.205322,0.594238,1.280488,0.975610,0.274390,1
11:30:53.827,0.769043,-0.203857,0.588135,0.213415,0.914634,0.121951,1
11:30:53.859,0.774414,-0.205078,0.593018,0.365854,0.518293,0.121951,1
11:30:53.898,0.779297,-0.201416,0.585693,1.676829,1.158537,0.152439,1
11:30:53.923,0.771729,-0.205566,0.597168,0.884146,1.158537,-0.365854,1
11:30:53.960,0.771240,-0.199463,0.586426,-0.975610,1.524390,-0.945122,1
11:30:53.996,0.777344,-0.212646,0.594727,-0.152439,1.920732,-0.945122,1
11:30:56.486,0.775146,-0.210693,0.592529,-1.036585,1.737805,-2.042683,1
11:30:56.533,0.771484,-0.220703,0.587158,0.701220,1.859756,-1.920732,1
11:30:56.550,0.769775,-0.214844,0.584717,-1.097561,1.737805,-2.469512,1
11:30:56.580,0.765869,-0.212646,0.585205,0.213415,0.487805,-2.469512,1
11:30:56.616,0.768311,-0.217285,0.582520,0.152439,0.640244,-1.951220,1
11:30:56.647,0.770020,-0.222900,0.581543,0.274390,0.792683,-1.463415,1
11:30:56.682,0.767334,-0.221680,0.589111,0.121951,0.365854,-2.073171,1
11:30:56.720,0.762939,-0.212402,0.587402,-0.152439,-0.213415,-2.134146,1
11:30:56.752,0.765869,-0.218994,0.581299,1.097561,-0.457317,-1.463415,1
11:30:56.783,0.768799,-0.216064,0.588867,-0.304878,-0.274390,-1.890244,1
11:30:56.799,0.766357,-0.215576,0.589600,0.091463,-0.548781,-1.829268,1
11:30:56.862,0.773682,-0.218994,0.591064,1.067073,-0.426829,-0.975610,1
11:30:56.872,0.777588,-0.216064,0.587158,0.792683,0.243902,-1.036585,1
11:30:56.903,0.775879,-0.212646,0.593994,0.426829,-0.274390,-1.493902,1
11:30:56.932,0.773438,-0.213867,0.583496,-0.823171,-0.365854,-2.195122,1
11:30:56.965,0.772705,-0.201660,0.566895,-2.500000,-0.365854,-2.713415,1
11:30:57.002,0.767578,-0.212891,0.563965,1.310976,-2.957317,-3.353659,1
11:30:57.039,0.787598,-0.217041,0.556396,-1.951220,-1.341463,-5.304878,1
11:30:57.071,0.790283,-0.213867,0.570312,-4.085366,-0.518293,-3.871951,1
11:30:57.109,0.802002,-0.219482,0.571045,-0.396341,3.231707,-3.262195,1
11:30:57.138,0.781250,-0.222900,0.562256,-1.920732,2.530488,-5.060976,1
11:30:57.171,0.783203,-0.165771,0.596436,-14.085366,2.347561,-8.109756,1
11:30:57.206,0.779053,-0.194580,0.604004,-10.548780,3.109756,-9.817074,1
11:30:57.247,0.778564,-0.217773,0.561035,-5.701220,4.085366,-5.152439,1
11:30:57.283,0.791992,-0.261719,0.612061,-2.073171,3.445122,-2.621951,1
11:30:57.315,0.797119,-0.222900,0.593018,-0.792683,4.817073,-1.798781,1
11:30:57.349,0.796143,-0.226562,0.580078,0.762195,5.091464,1.402439,1
11:30:57.379,0.803467,-0.251221,0.576904,6.615854,5.975610,4.756098,1
11:30:57.413,0.788086,-0.211914,0.565674,2.987805,7.225610,5.152439,1
11:30:57.445,0.751709,-0.183594,0.533447,17.591463,5.762195,8.018292,1
11:30:57.480,0.741943,-0.206543,0.572998,21.554878,4.725610,2.987805,1
11:30:57.490,0.785400,-0.192383,0.556641,2.926829,5.060976,0.365854,1
11:30:57.562,0.801025,-0.198242,0.622803,-2.865854,4.054878,-0.792683,1
11:30:57.571,0.761719,-0.200928,0.624023,-3.902439,5.243903,-0.304878,1
11:30:57.595,0.747559,-0.208008,0.605469,-3.719512,4.908537,-1.615854,1
11:30:57.643,0.742188,-0.200195,0.609863,-4.969512,4.237805,-3.109756,1
11:30:57.651,0.737549,-0.197021,0.606445,-3.567073,2.286585,-4.634147,1
11:30:57.684,0.738037,-0.190186,0.592285,-1.128049,0.060976,-6.981708,1
11:30:57.740,0.748047,-0.212891,0.596191,2.591464,-0.213415,-7.164634,1
11:30:57.748,0.754395,-0.214844,0.602539,7.926829,-1.615854,-6.310976,1
11:30:57.798,0.754150,-0.199463,0.583496,4.969512,-2.987805,-6.371952,1
11:30:57.831,0.764160,-0.190186,0.612549,-0.853659,-2.743902,-7.134147,1
11:30:57.866,0.764893,-0.222656,0.599609,3.414634,-1.981707,-6.554878,1
11:30:57.874,0.775146,-0.200195,0.597656,2.042683,-0.701220,-4.969512,1
11:30:57.932,0.772705,-0.204590,0.612061,-0.762195,-0.579268,-3.567073,1
11:30:57.966,0.775391,-0.210693,0.611084,0.487805,0.152439,-2.713415,1
11:30:57.999,0.772217,-0.208984,0.596924,-0.396341,1.128049,-1.676829,1
11:30:58.017,0.775879,-0.195557,0.606934,0.304878,1.158537,-1.951220,1
11:30:58.048,0.771729,-0.195557,0.602051,0.243902,1.067073,-1.646342,1
11:30:58.084,0.772217,-0.191162,0.597168,-1.036585,1.219512,-2.469512,1
11:30:58.117,0.772217,-0.194580,0.597168,1.615854,0.914634,-1.189024,1
11:30:58.150,0.772705,-0.193604,0.591309,0.579268,0.823171,-0.487805,1
11:30:58.183,0.768311,-0.191406,0.595215,-1.067073,0.457317,-1.859756,1
11:30:58.215,0.768066,-0.187012,0.595215,1.981707,0.335366,-1.463415,1
11:30:58.251,0.771973,-0.194336,0.602539,0.426829,0.975610,-0.731707,1
11:30:58.265,0.773926,-0.192139,0.599854,0.213415,0.975610,-1.280488,1
11:30:58.311,0.764648,-0.185303,0.602051,-0.853659,1.615854,-1.371951,1
11:30:58.346,0.764404,-0.184326,0.592773,-0.213415,0.762195,-2.103659,1
11:31:02.515,0.771240,-0.231689,0.584717,0.274390,0.426829,-1.524390,1
11:31:02.570,0.770508,-0.219238,0.589844,-0.426829,0.304878,-1.432927,1
11:31:02.589,0.769043,-0.227295,0.584473,1.158537,0.792683,-1.006098,1
11:31:02.617,0.770508,-0.215576,0.590332,-1.006098,0.670732,-1.189024,1
11:31:02.648,0.774170,-0.229736,0.584961,0.975610,0.091463,-0.945122,1
11:31:02.687,0.770996,-0.226807,0.581299,-0.030488,0.548781,-1.006098,1
11:31:02.712,0.770996,-0.212891,0.588623,0.426829,0.304878,-1.036585,1
11:31:02.728,0.778076,-0.213867,0.582275,0.548781,1.097561,-0.975610,1
11:31:02.764,0.780029,-0.206787,0.592773,0.274390,0.762195,-1.402439,1
11:31:02.797,0.773193,-0.210938,0.571777,-0.060976,1.128049,-1.920732,1
11:31:02.831,0.778809,-0.205811,0.586914,-1.097561,0.823171,-2.286585,1
11:31:02.869,0.779785,-0.203369,0.586182,-2.103659,1.890244,-3.719512,1
11:31:02.900,0.782959,-0.196289,0.577881,-1.981707,1.951220,-5.091464,1
11:31:02.940,0.785889,-0.198975,0.575928,-3.292683,2.652439,-6.036585,1
11:31:02.973,0.785156,-0.195312,0.590576,-3.048780,2.987805,-6.128049,1
11:31:03.005,0.784668,-0.215088,0.599609,-1.402439,2.225610,-4.847561,1
11:31:03.039,0.779297,-0.214844,0.566406,-0.274390,2.073171,-5.274390,1
11:31:03.073,0.779297,-0.217285,0.583008,-1.219512,2.347561,-5.731708,1
11:31:03.103,0.771973,-0.216797,0.590820,-2.164634,1.859756,-5.640244,1
11:31:03.145,0.764893,-0.228271,0.583008,-0.243902,0.975610,-5.304878,1
11:31:03.175,0.762939,-0.230957,0.577881,0.426829,-0.030488,-4.298780,1
11:31:03.208,0.765381,-0.230957,0.579346,-1.067073,0.853659,-2.835366,1
11:31:03.241,0.766357,-0.238281,0.582275,0.853659,0.396341,-1.493902,1
11:31:03.248,0.769043,-0.231934,0.576904,-1.676829,-0.213415,-2.195122,1
11:31:03.311,0.771240,-0.220215,0.576172,-0.701220,-0.701220,-2.195122,1
11:31:03.347,0.777832,-0.212891,0.575195,-1.219512,-0.182927,-1.432927,1
11:31:03.356,0.777588,-0.208008,0.568115,-3.048780,0.579268,-2.195122,1
11:31:03.412,0.774902,-0.187500,0.581299,-9.603659,1.829268,-4.390244,1
11:31:03.424,0.783691,-0.176514,0.585938,-19.298780,3.170732,-7.926829,1
11:31:03.448,0.781494,-0.194580,0.571777,-17.042683,5.884147,-8.597561,1
11:31:03.504,0.789062,-0.232178,0.621826,-24.298780,6.067073,-9.573171,1
11:31:03.512,0.769287,-0.229980,0.670410,-28.536587,5.457317,-12.652439,1
11:31:03.541,0.783691,-0.270752,0.569580,-4.207317,2.682927,-7.408537,1
11:31:03.576,0.782715,-0.193848,0.582031,-6.707317,3.414634,-5.487805,1
11:31:03.609,0.805420,-0.297607,0.574219,11.463415,4.573171,1.036585,1
11:31:03.645,0.813721,-0.272949,0.579346,9.573171,4.268293,5.243903,1
11:31:03.682,0.793945,-0.204590,0.574951,7.865854,4.573171,6.524390,1
11:31:03.714,0.750977,-0.198486,0.527832,20.365854,4.573171,7.225610,1
11:31:03.750,0.768066,-0.228027,0.572266,11.981708,0.853659,5.579268,1
11:31:03.782,0.768799,-0.254150,0.538330,12.439025,-1.341463,1.463415,1
11:31:03.814,0.759766,-0.222168,0.587402,11.067074,-3.262195,1.920732,1
11:31:03.846,0.760986,-0.226074,0.580811,3.018293,-0.975610,0.609756,1
11:31:03.881,0.759033,-0.229736,0.591797,7.195122,-0.396341,0.701220,1
11:31:03.915,0.759277,-0.221191,0.612549,6.219512,0.030488,2.225610,1
11:31:03.961,0.758789,-0.222412,0.620605,2.103659,0.152439,0.518293,1
11:31:03.970,0.757324,-0.202881,0.588623,1.128049,1.067073,-1.554878,1
11:31:04.002,0.758301,-0.201172,0.606689,0.487805,0.975610,-1.798781,1
11:31:04.041,0.772217,-0.206787,0.607666,0.701220,1.158537,-1.128049,1
11:31:04.073,0.766113,-0.203857,0.608398,1.585366,1.189024,-1.798781,1
11:31:04.106,0.768066,-0.203613,0.601562,-0.213415,2.012195,-1.798781,1
11:31:04.123,0.772705,-0.206787,0.596191,0.579268,2.500000,-1.829268,1
11:31:04.174,0.768799,-0.211670,0.605713,0.213415,1.310976,-1.768293,1
11:31:04.219,0.763184,-0.209961,0.593506,0.091463,1.310976,-2.256098,1
11:31:04.240,0.760986,-0.208740,0.588623,1.493902,1.280488,-2.591464,1
11:31:06.417,0.762695,-0.216309,0.595703,-1.402439,0.884146,-1.951220,1
11:31:06.446,0.763184,-0.222900,0.595947,0.609756,0.304878,-1.890244,1
11:31:06.485,0.762451,-0.227783,0.595215,0.213415,0.304878,-1.280488,1
11:31:06.520,0.766846,-0.220947,0.591309,0.060976,0.274390,-1.189024,1
11:31:06.553,0.764648,-0.220947,0.598145,-0.060976,0.060976,-1.707317,1
11:31:06.566,0.767822,-0.221436,0.598877,-0.487805,0.243902,-1.676829,1
11:31:06.621,0.776611,-0.222900,0.600342,0.243902,1.310976,-1.524390,1
11:31:06.657,0.769775,-0.213867,0.605225,-1.707317,1.829268,-2.225610,1
11:31:06.665,0.769043,-0.207031,0.598145,-1.250000,1.859756,-3.353659,1
11:31:06.720,0.768799,-0.199463,0.596924,-2.865854,2.469512,-4.329268,1
11:31:06.747,0.771240,-0.202393,0.603027,-1.463415,2.682927,-4.786585,1
11:31:06.781,0.768311,-0.200684,0.597412,-2.774390,2.560976,-5.121951,1
11:31:06.814,0.771484,-0.209473,0.591309,-1.768293,2.621951,-5.579268,1
11:31:06.852,0.769531,-0.208252,0.590820,-2.896342,2.804878,-5.579268,1
11:31:06.862,0.769287,-0.218262,0.593750,-2.408537,2.378049,-5.914634,1
11:31:06.895,0.767578,-0.221924,0.589111,-2.378049,1.585366,-5.914634,1
11:31:06.929,0.760254,-0.219238,0.588867,-2.408537,1.341463,-5.121951,1
11:31:06.970,0.761475,-0.223389,0.581787,-1.189024,0.823171,-4.969512,1
11:31:06.997,0.763428,-0.223633,0.587891,-2.500000,0.274390,-4.878049,1
11:31:07.028,0.764648,-0.225586,0.584717,-2.317073,-0.487805,-4.451220,1
11:31:07.061,0.762695,-0.235352,0.586426,0.243902,-0.060976,-2.896342,1
11:31:07.095,0.768066,-0.234619,0.599121,-1.341463,0.152439,-2.439024,1
11:31:07.130,0.761230,-0.223145,0.592041,-1.798781,0.396341,-2.408537,1
11:31:07.162,0.760254,-0.223633,0.591553,-0.548781,-0.060976,-2.073171,1
11:31:07.194,0.765869,-0.210205,0.593262,-2.378049,-0.365854,-2.408537,1
11:31:07.225,0.766357,-0.227539,0.584229,2.073171,-0.487805,-1.859756,1
11:31:07.259,0.769531,-0.220215,0.589600,-1.432927,-0.731707,-2.225610,1
11:31:07.293,0.770996,-0.202881,0.587158,-0.579268,-1.585366,-3.231707,1
11:31:07.335,0.764648,-0.194580,0.566895,2.164634,-2.195122,-3.292683,1
11:31:07.369,0.763428,-0.209229,0.568848,-0.762195,-2.042683,-4.573171,1
11:31:07.403,0.771240,-0.206055,0.581787,3.810976,-3.201220,-4.969512,1
11:31:07.436,0.798096,-0.223877,0.589844,1.585366,-1.768293,-3.109756,1
11:31:07.448,0.810547,-0.222412,0.604736,-1.676829,0.426829,-1.829268,1
11:31:07.498,0.776123,-0.187744,0.598145,-11.463415,4.451220,-5.731708,1
11:31:07.534,0.783447,-0.181885,0.603271,-20.182928,7.073171,-7.408537,1
11:31:07.542,0.766113,-0.240479,0.592529,-4.115854,2.012195,-6.402439,1
11:31:07.594,0.731689,-0.204590,0.587891,-2.560976,2.042683,-7.317073,1
11:31:07.631,0.797119,-0.238770,0.619629,-1.006098,1.646342,-8.018292,1
11:31:07.638,0.799072,-0.194336,0.599365,-1.280488,0.609756,-7.073171,1
11:31:07.694,0.796387,-0.224609,0.580078,7.865854,1.615854,-2.286585,1
11:31:07.711,0.815918,-0.227539,0.610840,1.737805,4.085366,1.524390,1
11:31:07.743,0.784912,-0.228027,0.604736,0.701220,5.304878,3.445122,1
11:31:07.774,0.777100,-0.207275,0.560547,-3.841464,4.817073,2.012195,1
11:31:07.811,0.789795,-0.202148,0.545166,3.323171,4.146341,-1.280488,1
11:31:07.843,0.783447,-0.173584,0.539062,6.859756,1.219512,2.103659,1
11:31:07.875,0.769531,-0.217773,0.579346,7.439024,-0.823171,3.262195,1
11:31:07.908,0.754395,-0.221924,0.596924,7.042683,-1.097561,1.310976,1
11:31:07.940,0.748535,-0.187988,0.581299,5.609756,-0.701220,-0.243902,1
11:31:07.977,0.756592,-0.201416,0.603027,3.689024,-1.006098,-0.457317,1
11:31:08.012,0.764404,-0.198730,0.600342,1.646342,-0.853659,-1.585366,1
11:31:08.051,0.770996,-0.205811,0.594482,3.201220,0.518293,-1.310976,1
11:31:08.081,0.779297,-0.193848,0.600342,-1.463415,1.250000,-1.768293,1
11:31:08.114,0.773193,-0.209961,0.599854,2.926829,0.914634,-0.884146,1
11:31:08.156,0.774170,-0.203369,0.596924,1.067073,1.310976,-1.402439,1
11:31:08.188,0.773193,-0.192871,0.588135,0.762195,1.554878,-1.493902,1
11:31:08.225,0.779053,-0.206299,0.597656,-0.152439,2.103659,-1.250000,1
11:31:08.232,0.777344,-0.209717,0.593506,0.548781,1.402439,-1.463415,1
11:31:08.284,0.766602,-0.191650,0.582520,0.640244,1.250000,-1.585366,1
11:31:08.322,0.768066,-0.196045,0.591553,-0.060976,1.310976,-1.615854,1
11:31:08.327,0.775146,-0.207764,0.595947,2.743902,0.823171,-0.884146,1
11:31:08.375,0.772217,-0.200928,0.586182,0.121951,1.158537,-1.524390,1
11:31:10.943,0.767090,-0.234375,0.582764,2.774390,0.213415,-0.884146,1
11:31:10.963,0.769287,-0.221436,0.582764,1.128049,0.365854,-1.402439,1
11:31:11.006,0.768311,-0.216553,0.587891,1.310976,0.396341,-1.646342,1
11:31:11.041,0.774658,-0.220703,0.590088,0.884146,0.365854,-1.768293,1
11:31:11.072,0.774170,-0.227539,0.588623,1.006098,0.975610,-1.219512,1
11:31:11.106,0.772949,-0.219971,0.594727,0.914634,0.914634,-1.920732,1
11:31:11.144,0.770264,-0.212402,0.593018,0.609756,0.914634,-1.951220,1
11:31:11.176,0.768799,-0.209961,0.594727,0.091463,1.676829,-2.225610,1
11:31:11.208,0.771240,-0.214111,0.593994,1.128049,1.676829,-1.981707,1
11:31:11.240,0.770752,-0.217773,0.596680,0.000000,1.768293,-2.042683,1
11:31:11.275,0.765625,-0.218262,0.589111,1.402439,1.768293,-2.408537,1
11:31:11.306,0.769287,-0.222412,0.594238,-0.152439,1.615854,-2.896342,1
11:31:11.342,0.774658,-0.218506,0.593506,-1.341463,1.737805,-2.256098,1
11:31:11.378,0.763672,-0.220703,0.586914,1.554878,1.432927,-1.676829,1
11:31:11.411,0.766602,-0.207520,0.592773,-0.304878,1.859756,-2.408537,1
11:31:11.445,0.774658,-0.210693,0.592285,-1.310976,2.500000,-2.713415,1
11:31:11.474,0.773438,-0.205566,0.596191,-1.067073,2.500000,-3.201220,1
11:31:11.509,0.775391,-0.202148,0.593018,-1.829268,2.286585,-3.506098,1
11:31:11.547,0.776123,-0.199463,0.592285,-2.835366,2.317073,-4.664634,1
11:31:11.560,0.771973,-0.188965,0.593994,-1.798781,1.981707,-5.121951,1
11:31:11.605,0.773682,-0.199951,0.588867,-1.615854,1.524390,-4.908537,1
11:31:11.644,0.773438,-0.218018,0.585205,-1.006098,0.945122,-4.969512,1
11:31:11.652,0.772461,-0.218506,0.585449,-0.640244,0.945122,-4.207317,1
11:31:11.697,0.772461,-0.216064,0.591553,-2.042683,1.189024,-4.054878,1
11:31:11.719,0.767822,-0.225586,0.591797,-0.884146,0.762195,-3.689024,1
11:31:11.751,0.779053,-0.223145,0.599609,-1.981707,1.707317,-3.567073,1
11:31:11.812,0.763428,-0.216553,0.592285,-3.414634,1.371951,-3.689024,1
11:31:11.822,0.767090,-0.222168,0.587891,-0.884146,0.670732,-2.987805,1
11:31:11.843,0.766602,-0.212646,0.591553,-1.341463,0.487805,-2.682927,1
11:31:11.876,0.764893,-0.220947,0.592773,-0.731707,0.152439,-2.103659,1
11:31:11.910,0.770020,-0.216797,0.592773,-1.341463,0.640244,-1.341463,1
11:31:11.949,0.766846,-0.219971,0.592773,-1.493902,0.030488,-1.890244,1
11:31:11.988,0.766602,-0.218262,0.589600,-1.189024,-0.548781,-1.951220,1
11:31:12.015,0.777344,-0.201416,0.587646,-0.579268,-0.060976,-0.213415,1
11:31:12.049,0.768555,-0.229004,0.586670,-0.609756,0.060976,-0.548781,1
11:31:12.079,0.777344,-0.208984,0.586182,-4.298780,0.640244,-2.500000,1
11:31:12.121,0.780518,-0.204834,0.587646,-5.579268,1.036585,-3.231707,1
11:31:12.151,0.779053,-0.217529,0.586426,-4.634147,1.951220,-2.134146,1
11:31:12.182,0.776611,-0.210449,0.575439,-8.384147,3.353659,-5.000000,1
11:31:12.216,0.762451,-0.190186,0.604736,-10.487805,3.628049,-7.774390,1
11:31:12.247,0.766602,-0.216797,0.582520,-6.341464,2.073171,-8.231708,1
11:31:12.281,0.774170,-0.231934,0.583008,-5.945122,2.073171,-7.225610,1
11:31:12.318,0.761719,-0.216064,0.592285,-6.890244,0.426829,-9.573171,1
11:31:12.355,0.763428,-0.185791,0.553467,-1.829268,0.762195,-8.201220,1
11:31:12.387,0.784424,-0.227539,0.606689,0.426829,1.585366,-3.414634,1
11:31:12.422,0.795410,-0.223389,0.611084,-0.823171,2.926829,-0.396341,1
11:31:12.431,0.793213,-0.234131,0.601562,2.317073,4.054878,0.945122,1
11:31:12.478,0.776855,-0.203857,0.596680,2.012195,4.298780,1.981707,1
11:31:12.519,0.782959,-0.233887,0.592285,4.329268,5.487805,4.664634,1
11:31:12.528,0.792480,-0.233887,0.611816,-1.463415,7.012195,5.457317,1
11:31:12.583,0.781006,-0.250977,0.587891,11.707317,2.926829,5.030488,1
11:31:12.591,0.748291,-0.215576,0.564697,17.195122,1.280488,9.695122,1
11:31:12.617,0.768066,-0.256592,0.559082,13.170732,3.810976,8.506098,1
11:31:12.675,0.761230,-0.242432,0.600098,8.963415,4.329268,5.853659,1
11:31:12.715,0.739990,-0.224609,0.603516,4.542683,3.140244,3.902439,1
11:31:12.727,0.726318,-0.215820,0.600342,4.756098,0.670732,1.341463,1
11:31:12.751,0.729980,-0.191162,0.586914,1.097561,-0.060976,-0.274390,1
11:31:12.784,0.747070,-0.202148,0.603027,2.469512,-0.335366,-1.676829,1
11:31:12.817,0.754150,-0.216797,0.610352,2.530488,-1.310976,-1.036585,1
11:31:12.875,0.760742,-0.211914,0.598145,1.890244,-0.030488,-2.012195,1
11:31:12.924,0.761475,-0.197021,0.613037,-1.067073,0.792683,-3.079268,1
11:31:12.931,0.757812,-0.207275,0.614258,-0.396341,0.365854,-2.835366,1
11:31:12.970,0.758545,-0.211914,0.608154,2.042683,0.030488,-2.042683,1
11:31:12.996,0.762207,-0.213135,0.604736,0.762195,1.067073,-2.103659,1
11:31:13.028,0.761963,-0.216797,0.616699,1.615854,1.189024,-1.829268,1
11:31:13.062,0.757812,-0.221191,0.609131,0.945122,0.975610,-1.432927,1
11:31:16.238,0.769531,-0.211670,0.589844,0.365854,1.737805,-1.798781,1
11:31:16.269,0.766113,-0.214600,0.590576,0.518293,1.219512,-2.134146,1
11:31:16.301,0.768066,-0.218506,0.590332,0.091463,0.792683,-2.317073,1
11:31:16.335,0.772461,-0.221191,0.591064,1.554878,0.457317,-1.554878,1
11:31:16.392,0.774170,-0.214844,0.592285,-0.060976,0.975610,-1.768293,1
11:31:16.425,0.764648,-0.216309,0.596191,1.067073,0.701220,-1.829268,1
11:31:16.437,0.771240,-0.216797,0.591797,0.518293,1.006098,-1.585366,1
11:31:16.468,0.765869,-0.209961,0.592285,0.274390,0.975610,-1.859756,1
11:31:16.503,0.766357,-0.218262,0.592285,0.945122,0.731707,-1.676829,1
11:31:16.535,0.768555,-0.220947,0.598145,-0.152439,1.554878,-1.707317,1
11:31:16.573,0.769775,-0.212646,0.596191,0.579268,1.280488,-2.042683,1
11:31:16.614,0.770752,-0.212891,0.593750,0.243902,0.945122,-1.737805,1
11:31:16.622,0.772705,-0.211914,0.594482,0.060976,1.615854,-1.097561,1
11:31:16.677,0.767090,-0.210938,0.593018,1.036585,1.493902,-1.707317,1
11:31:16.712,0.762939,-0.196533,0.590088,-1.524390,1.128049,-3.109756,1
11:31:16.763,0.769775,-0.197510,0.590332,0.152439,1.280488,-3.262195,1
11:31:16.796,0.775146,-0.201904,0.602051,-4.207317,2.957317,-4.512195,1
11:31:16.804,0.772949,-0.181641,0.606689,-7.439024,3.841464,-6.676829,1
11:31:16.833,0.758789,-0.201416,0.595703,-7.103659,3.140244,-6.493903,1
11:31:16.864,0.768555,-0.224609,0.590820,-2.530488,2.317073,-5.243903,1
11:31:16.897,0.770264,-0.226562,0.582031,-0.335366,1.371951,-3.750000,1
11:31:16.928,0.772705,-0.211914,0.588135,0.426829,0.823171,-3.932927,1
11:31:16.961,0.769043,-0.208984,0.584717,0.060976,0.579268,-4.085366,1
11:31:17.007,0.769287,-0.208008,0.589600,-0.975610,1.189024,-4.390244,1
11:31:17.041,0.766357,-0.214355,0.591797,-0.884146,1.067073,-3.963415,1
11:31:17.075,0.770020,-0.216309,0.591309,-0.945122,0.701220,-3.963415,1
11:31:17.106,0.769287,-0.214111,0.590576,-1.371951,0.640244,-3.902439,1
11:31:17.139,0.765381,-0.213135,0.596191,-0.030488,0.335366,-3.201220,1
11:31:17.175,0.764160,-0.216064,0.593994,-0.670732,0.121951,-2.987805,1
11:31:17.211,0.762939,-0.211914,0.594238,-0.579268,1.006098,-2.713415,1
11:31:17.221,0.768555,-0.216797,0.590088,-1.615854,0.457317,-3.079268,1
11:31:17.248,0.767578,-0.215820,0.592041,-1.158537,-0.121951,-2.987805,1
11:31:17.306,0.769531,-0.213623,0.587158,-1.402439,1.097561,-1.890244,1
11:31:17.338,0.767334,-0.208008,0.591797,-3.780488,0.274390,-2.012195,1
11:31:17.371,0.760498,-0.205322,0.578857,-6.676829,1.859756,-4.481708,1
11:31:17.388,0.757080,-0.213867,0.579102,-5.060976,2.987805,-4.329268,1
11:31:17.423,0.781250,-0.201172,0.613770,-8.445122,4.024390,-6.920732,1
11:31:17.455,0.781494,-0.186523,0.647949,-11.707317,5.304878,-8.414635,1
11:31:17.487,0.724365,-0.154297,0.581543,-8.384147,1.920732,-8.902439,1
11:31:17.519,0.785400,-0.250244,0.583740,9.847561,-1.768293,-5.121951,1
11:31:17.553,0.787354,-0.220947,0.589111,4.207317,-0.884146,-4.847561,1
11:31:17.588,0.811523,-0.233887,0.604248,2.713415,2.103659,-2.134146,1
11:31:17.623,0.805664,-0.238525,0.618164,3.109756,3.871951,1.951220,1
11:31:17.656,0.784668,-0.243896,0.624756,1.250000,5.792683,3.963415,1
11:31:17.689,0.791992,-0.224854,0.617920,-4.695122,7.164634,4.847561,1
11:31:17.721,0.766357,-0.182129,0.579102,4.542683,5.731708,8.079268,1
11:31:17.755,0.741455,-0.205078,0.558594,10.060976,2.500000,3.414634,1
11:31:17.794,0.766113,-0.193848,0.531006,8.750000,-0.396341,0.853659,1
11:31:17.802,0.769775,-0.193848,0.567139,8.109756,-1.981707,3.567073,1
11:31:17.832,0.775635,-0.262207,0.606689,10.701220,-0.884146,2.774390,1
11:31:17.864,0.770996,-0.207764,0.623535,2.012195,0.975610,3.445122,1
11:31:17.899,0.753174,-0.221680,0.614258,4.451220,-0.030488,1.707317,1
11:31:17.931,0.733643,-0.213867,0.608887,2.896342,0.121951,1.310976,1
11:31:17.995,0.738770,-0.196777,0.609863,0.731707,1.036585,0.121951,1
11:31:18.006,0.742188,-0.205811,0.615723,1.310976,1.067073,0.091463,1
11:31:18.038,0.762451,-0.213135,0.616455,0.823171,1.097561,0.121951,1
11:31:18.070,0.760986,-0.204590,0.612305,0.670732,1.615854,0.030488,1
11:31:18.102,0.759521,-0.212891,0.611328,1.097561,2.317073,-0.304878,1
11:31:18.134,0.759033,-0.194580,0.606201,-0.213415,1.859756,-0.487805,1
11:31:18.169,0.758057,-0.190186,0.599121,-1.036585,0.762195,-1.280488,1
11:31:18.180,0.758057,-0.199219,0.588867,1.250000,0.121951,-1.097561,1
11:31:18.235,0.768799,-0.212158,0.604004,2.042683,0.609756,-1.189024,1
11:31:18.268,0.767090,-0.198242,0.602783,-0.579268,1.402439,-1.615854,1
11:31:22.571,0.737793,-0.292236,0.579102,5.060976,-1.585366,-1.067073,1
11:31:22.631,0.746338,-0.284180,0.586426,1.371951,-1.493902,-0.731707,1
11:31:22.649,0.742920,-0.281006,0.581543,0.121951,-0.975610,-1.585366,1
11:31:22.691,0.748047,-0.287598,0.592773,4.054878,-2.225610,-1.189024,1
11:31:22.727,0.753906,-0.289551,0.592529,-1.676829,-0.853659,-1.432927,1
11:31:22.759,0.745605,-0.273193,0.587646,-0.762195,0.030488,-1.829268,1
11:31:22.793,0.746094,-0.283936,0.595459,0.426829,1.006098,-1.585366,1
11:31:22.824,0.755127,-0.271729,0.603271,-4.695122,1.707317,-2.134146,1
11:31:22.859,0.747314,-0.281738,0.590088,0.243902,1.097561,-1.768293,1
11:31:22.910,0.749512,-0.284424,0.583740,-0.701220,0.975610,-1.890244,1
11:31:22.936,0.745850,-0.272949,0.587402,-1.585366,1.097561,-2.896342,1
11:31:22.949,0.750000,-0.281738,0.589111,1.859756,0.914634,-2.073171,1
11:31:23.001,0.758057,-0.283203,0.589600,-1.463415,2.012195,-1.859756,1
11:31:23.036,0.752686,-0.284912,0.593750,1.859756,2.286585,-2.378049,1
11:31:23.081,0.754639,-0.280273,0.592041,1.097561,2.500000,-1.951220,1
11:31:23.090,0.757812,-0.274902,0.590576,-0.121951,2.713415,-2.621951,1
11:31:23.115,0.760742,-0.277344,0.588867,0.457317,2.743902,-2.713415,1
11:31:23.167,0.760010,-0.264893,0.591797,-1.951220,3.140244,-3.414634,1
11:31:23.175,0.759521,-0.260742,0.584473,0.731707,4.115854,-4.024390,1
11:31:23.217,0.765869,-0.252686,0.603516,-2.103659,5.121951,-4.817073,1
11:31:23.254,0.751953,-0.248779,0.598145,-4.969512,5.030488,-6.951220,1
11:31:23.264,0.747559,-0.238525,0.588379,0.060976,1.951220,-7.743903,1
11:31:23.321,0.743652,-0.263916,0.578857,0.396341,1.189024,-7.591464,1
11:31:23.351,0.746582,-0.276611,0.590332,1.128049,0.792683,-6.067073,1
11:31:23.385,0.747070,-0.287109,0.583496,3.810976,0.060976,-5.121951,1
11:31:23.415,0.745361,-0.294434,0.589355,3.170732,-0.365854,-4.237805,1
11:31:23.450,0.742920,-0.287598,0.589355,3.262195,-0.030488,-2.987805,1
11:31:23.470,0.737061,-0.284180,0.597168,3.597561,-1.006098,-2.164634,1
11:31:23.503,0.738037,-0.283936,0.587402,3.780488,-1.128049,-1.280488,1
11:31:23.536,0.742676,-0.281006,0.595947,5.000000,-1.280488,-0.670732,1
11:31:23.570,0.742920,-0.272949,0.596924,2.134146,0.091463,-0.701220,1
11:31:23.603,0.750244,-0.267578,0.599121,4.908537,1.097561,-2.195122,1
11:31:23.641,0.759277,-0.238281,0.600586,2.012195,3.109756,-1.585366,1
11:31:23.673,0.767578,-0.258789,0.609863,-4.603659,6.310976,-3.079268,1
11:31:23.708,0.749512,-0.237549,0.606201,-9.695122,7.378049,-6.097561,1
11:31:23.744,0.742188,-0.242920,0.607666,-2.926829,6.585366,-5.182927,1
11:31:23.771,0.703613,-0.282227,0.640869,-7.621952,3.902439,-4.359756,1
11:31:23.802,0.738770,-0.271729,0.576172,-2.225610,0.152439,-8.018292,1
11:31:23.840,0.759521,-0.250488,0.583740,2.835366,0.396341,-6.250000,1
11:31:23.882,0.791992,-0.276855,0.596924,3.262195,1.798781,-1.371951,1
11:31:23.890,0.782959,-0.263184,0.617188,2.225610,2.195122,0.975610,1
11:31:23.946,0.766357,-0.265381,0.621338,3.292683,2.774390,2.682927,1
11:31:23.979,0.764893,-0.251465,0.617676,-8.109756,4.542683,1.676829,1
11:31:24.012,0.746582,-0.208008,0.598145,0.701220,4.512195,1.158537,1
11:31:24.049,0.740234,-0.318115,0.596191,16.554878,2.256098,-0.975610,1
11:31:24.057,0.754883,-0.226318,0.574951,6.554878,0.426829,0.365854,1
11:31:24.110,0.742432,-0.265869,0.612061,7.804878,0.000000,1.859756,1
11:31:24.149,0.730225,-0.274170,0.621582,6.402439,0.487805,1.585366,1
11:31:24.157,0.725098,-0.253418,0.616943,-1.920732,1.554878,0.213415,1
11:31:24.208,0.725342,-0.257080,0.627197,2.865854,0.060976,0.182927,1
11:31:24.221,0.720215,-0.256592,0.618164,3.719512,-1.371951,0.274390,1
11:31:24.242,0.734863,-0.231201,0.606201,2.073171,-0.060976,-0.731707,1
11:31:24.299,0.737549,-0.239746,0.626465,2.682927,0.914634,0.182927,1
11:31:24.311,0.740967,-0.248291,0.622559,2.103659,0.853659,0.426829,1
11:31:24.361,0.739990,-0.239502,0.621338,-2.012195,1.219512,-0.640244,1
11:31:24.394,0.747070,-0.252686,0.615723,1.067073,1.432927,-0.579268,1
11:31:24.441,0.747314,-0.243164,0.615967,1.890244,1.463415,-0.182927,1
11:31:27.050,0.745850,-0.243652,0.596924,-0.975610,0.945122,-2.195122,1
11:31:27.107,0.756104,-0.248779,0.601318,1.768293,0.579268,-1.128049,1
11:31:27.116,0.751709,-0.247070,0.598633,-0.121951,-0.030488,-1.310976,1
11:31:27.147,0.744141,-0.253906,0.605957,2.987805,-0.975610,-1.493902,1
11:31:27.181,0.745605,-0.248535,0.602783,0.579268,0.030488,-1.676829,1
11:31:27.214,0.746338,-0.247070,0.611084,1.402439,0.091463,-1.371951,1
11:31:27.248,0.749756,-0.253174,0.609131,1.951220,0.670732,-1.128049,1
11:31:27.281,0.751221,-0.250732,0.617188,0.701220,1.067073,-1.463415,1
11:31:27.313,0.749756,-0.248779,0.606934,1.280488,1.707317,-1.432927,1
11:31:27.350,0.747803,-0.248535,0.608887,-0.152439,1.676829,-1.707317,1
11:31:27.360,0.750244,-0.249512,0.604248,1.219512,1.463415,-1.554878,1
11:31:27.418,0.750977,-0.245361,0.598633,-0.213415,1.676829,-1.737805,1
11:31:27.452,0.758057,-0.249512,0.601074,-0.396341,2.378049,-1.646342,1
11:31:27.483,0.750732,-0.241211,0.600098,-0.152439,1.371951,-2.926829,1
11:31:27.529,0.750732,-0.232910,0.602783,-0.731707,1.219512,-3.323171,1
11:31:27.537,0.755371,-0.241699,0.605713,-0.365854,2.256098,-2.896342,1
11:31:27.567,0.753418,-0.230957,0.612061,-1.646342,3.048780,-3.475610,1
11:31:27.622,0.748291,-0.228760,0.612305,-1.067073,2.804878,-4.268293,1
11:31:27.635,0.750977,-0.227051,0.611572,-3.079268,3.262195,-5.060976,1
11:31:27.662,0.753418,-0.231934,0.602051,-1.951220,3.323171,-5.609756,1
11:31:27.716,0.751953,-0.239746,0.607178,-1.920732,2.835366,-5.762195,1
11:31:27.752,0.744873,-0.244385,0.602783,0.030488,2.225610,-5.518293,1
11:31:27.759,0.744873,-0.245605,0.603027,-0.914634,2.591464,-5.121951,1
11:31:27.791,0.742188,-0.251221,0.607178,-0.182927,2.469512,-5.121951,1
11:31:27.849,0.744873,-0.254395,0.610352,-1.250000,2.164634,-4.969512,1
11:31:27.882,0.741699,-0.248291,0.606934,-0.792683,1.402439,-4.725610,1
11:31:27.914,0.739502,-0.245605,0.603760,-1.371951,0.609756,-3.963415,1
11:31:27.934,0.744629,-0.254883,0.605957,-0.853659,0.213415,-3.201220,1
11:31:27.966,0.739502,-0.256836,0.604492,-2.469512,0.213415,-2.560976,1
11:31:28.000,0.739258,-0.251465,0.604004,-0.060976,-0.426829,-2.042683,1
11:31:28.034,0.738525,-0.255127,0.603271,-0.335366,0.121951,-1.493902,1
11:31:28.065,0.741455,-0.246094,0.594971,-0.365854,-0.792683,-2.804878,1
11:31:28.096,0.750244,-0.249756,0.610352,1.128049,-0.182927,-2.469512,1
11:31:28.131,0.752197,-0.241455,0.604980,-1.219512,0.945122,-1.371951,1
11:31:28.166,0.761230,-0.224609,0.624756,-10.274390,5.823171,-7.256098,1
11:31:28.199,0.750488,-0.201172,0.617920,-10.274390,5.731708,-8.292683,1
11:31:28.232,0.750488,-0.231689,0.617432,-4.969512,5.030488,-6.402439,1
11:31:28.244,0.763184,-0.220703,0.625000,-3.871951,3.475610,-12.347561,1
11:31:28.302,0.746582,-0.242188,0.574951,2.195122,2.591464,-8.353659,1
11:31:28.341,0.734619,-0.232422,0.621338,2.317073,2.317073,-2.743902,1
11:31:28.349,0.766357,-0.267090,0.636963,2.621951,2.804878,0.487805,1
11:31:28.399,0.757568,-0.239502,0.624023,3.384146,2.591464,-1.189024,1
11:31:28.407,0.745361,-0.224121,0.611572,0.914634,3.140244,-2.256098,1
11:31:28.437,0.761475,-0.262695,0.617432,3.597561,4.024390,1.006098,1
11:31:28.495,0.756592,-0.259521,0.639893,-1.493902,4.451220,2.195122,1
11:31:28.533,0.753418,-0.219482,0.614746,-11.768293,6.250000,1.737805,1
11:31:28.547,0.744629,-0.212891,0.623535,3.109756,6.158537,6.615854,1
11:31:28.596,0.713623,-0.218018,0.589844,9.512196,4.024390,5.945122,1
11:31:28.629,0.733154,-0.246094,0.614502,4.603659,2.500000,2.042683,1
11:31:28.668,0.724609,-0.241943,0.641357,6.981708,-0.457317,2.408537,1
11:31:28.694,0.709473,-0.232666,0.606201,5.914634,-1.189024,1.371951,1
11:31:28.712,0.720459,-0.228760,0.616211,7.835366,-0.213415,2.134146,1
11:31:28.745,0.735596,-0.234863,0.645020,2.743902,1.859756,-0.152439,1
11:31:28.778,0.721436,-0.216553,0.650146,0.640244,0.731707,-0.975610,1
11:31:28.811,0.720947,-0.228271,0.624512,2.256098,1.036585,-0.975610,1
11:31:28.841,0.724609,-0.233398,0.618408,0.945122,1.097561,-1.432927,1
11:31:28.875,0.734375,-0.235352,0.628418,0.182927,0.518293,-1.554878,1
11:31:28.910,0.737549,-0.236816,0.624756,0.762195,0.884146,-1.402439,1
11:31:28.943,0.735840,-0.239746,0.615479,-0.579268,1.432927,-1.036585,1
11:31:32.113,0.735596,-0.236816,0.615234,0.396341,0.304878,-1.371951,1
11:31:32.145,0.739258,-0.245605,0.617432,0.030488,0.182927,-1.676829,1
11:31:32.157,0.743164,-0.240967,0.620850,0.487805,-0.640244,-1.890244,1
11:31:32.214,0.734619,-0.237549,0.611328,1.219512,0.121951,-1.890244,1
11:31:32.251,0.743896,-0.238770,0.625000,-0.060976,-0.457317,-2.347561,1
11:31:32.258,0.742676,-0.243652,0.625977,-0.579268,0.274390,-1.981707,1
11:31:32.289,0.743408,-0.242920,0.628418,-1.280488,1.280488,-2.073171,1
11:31:32.349,0.737549,-0.238037,0.623535,-0.914634,1.646342,-2.225610,1
11:31:32.357,0.731934,-0.241699,0.622803,0.487805,0.853659,-2.103659,1
11:31:32.389,0.740234,-0.242188,0.629150,-0.060976,1.280488,-2.408537,1
11:31:32.451,0.739258,-0.235107,0.625488,-0.670732,2.195122,-2.286585,1
11:31:32.459,0.740234,-0.241455,0.626221,-0.030488,2.134146,-2.225610,1
11:31:32.512,0.741211,-0.229492,0.626465,-1.646342,2.530488,-2.743902,1
11:31:32.520,0.744385,-0.231689,0.618408,-1.036585,2.774390,-3.536585,1
11:31:32.549,0.747314,-0.224854,0.619629,-0.426829,2.987805,-4.085366,1
11:31:32.606,0.742432,-0.223145,0.615479,-0.670732,2.530488,-4.573171,1
11:31:32.617,0.739502,-0.221924,0.609863,-2.774390,1.920732,-6.158537,1
11:31:32.649,0.737305,-0.222412,0.611084,-3.871951,1.432927,-7.103659,1
11:31:32.679,0.743652,-0.239014,0.614990,-2.621951,1.097561,-6.585366,1
11:31:32.710,0.741455,-0.247314,0.613037,-1.067073,1.006098,-5.274390,1
11:31:32.742,0.741211,-0.242676,0.617432,-0.457317,0.426829,-4.817073,1
11:31:32.786,0.732178,-0.239746,0.617432,-0.975610,-0.060976,-4.481708,1
11:31:32.820,0.733398,-0.242920,0.624756,-1.524390,0.030488,-4.573171,1
11:31:32.857,0.731445,-0.247314,0.622070,-0.426829,0.182927,-3.292683,1
11:31:32.888,0.736572,-0.252441,0.624512,-1.036585,-0.884146,-2.865854,1
11:31:32.924,0.734131,-0.247803,0.625244,-1.097561,-0.426829,-2.317073,1
11:31:32.952,0.734375,-0.247070,0.625488,-0.762195,0.853659,-1.493902,1
11:31:32.985,0.734619,-0.237793,0.617432,0.426829,0.731707,-1.951220,1
11:31:33.023,0.728516,-0.220703,0.612061,-2.439024,0.518293,-3.048780,1
11:31:33.060,0.736084,-0.229980,0.600586,-11.646341,5.426829,-7.439024,1
11:31:33.090,0.745850,-0.214600,0.627197,-11.707317,5.853659,-5.030488,1
11:31:33.123,0.750244,-0.245850,0.637451,-10.457317,7.073171,-4.817073,1
11:31:33.155,0.749512,-0.227051,0.640381,-13.567074,5.487805,-9.176829,1
11:31:33.189,0.716309,-0.232666,0.638184,-9.451220,2.195122,-12.317074,1
11:31:33.212,0.757812,-0.257812,0.577148,-1.737805,-0.243902,-9.115854,1
11:31:33.242,0.751221,-0.232666,0.587158,0.670732,-1.097561,-7.865854,1
11:31:33.274,0.764404,-0.239014,0.624512,1.280488,0.213415,-3.384146,1
11:31:33.307,0.773438,-0.276123,0.645264,-2.530488,1.768293,-1.646342,1
11:31:33.339,0.751465,-0.239990,0.624512,-0.030488,2.012195,-1.524390,1
11:31:33.399,0.742920,-0.256104,0.631348,3.963415,1.981707,0.823171,1
11:31:33.413,0.755859,-0.287842,0.668213,4.054878,3.292683,4.176829,1
11:31:33.439,0.784424,-0.228516,0.663086,-24.817074,8.414635,2.439024,1
11:31:33.470,0.742920,-0.185547,0.635498,3.079268,6.067073,2.134146,1
11:31:33.500,0.735840,-0.248779,0.530273,22.256098,4.634147,8.841464,1
11:31:33.532,0.757324,-0.261230,0.612061,10.396341,4.481708,5.548780,1
11:31:33.566,0.723877,-0.239258,0.646484,1.524390,3.567073,2.469512,1
11:31:33.601,0.689209,-0.244873,0.644287,4.085366,-0.426829,-0.182927,1
11:31:33.639,0.679199,-0.232422,0.594971,5.243903,-1.890244,-1.707317,1
11:31:33.668,0.714355,-0.227051,0.623291,5.487805,-1.829268,-0.792683,1
11:31:33.701,0.722168,-0.238525,0.631592,1.951220,-1.920732,-1.798781,1
11:31:33.735,0.731689,-0.236572,0.627197,3.475610,-1.646342,-2.073171,1
11:31:33.765,0.735840,-0.239990,0.635498,2.713415,-1.402439,-1.676829,1
11:31:33.801,0.738281,-0.242188,0.635742,3.475610,-1.554878,-1.554878,1
11:31:33.837,0.740723,-0.239014,0.635742,1.798781,-1.341463,-1.280488,1
11:31:33.870,0.737305,-0.235107,0.614014,2.926829,-0.609756,-1.006098,1
11:31:33.906,0.739258,-0.234619,0.634766,1.554878,-0.182927,-1.036585,1
11:31:33.936,0.742676,-0.236816,0.635498,1.036585,0.365854,-0.579268,1
11:31:33.969,0.744873,-0.237305,0.626465,0.304878,0.640244,-0.853659,1
11:31:34.005,0.735596,-0.238037,0.628662,1.097561,0.609756,-0.487805,1
11:31:37.516,0.737305,-0.244873,0.623535,0.914634,1.280488,-0.792683,1
11:31:37.582,0.731689,-0.239502,0.620361,2.347561,0.487805,-0.670732,1
11:31:37.607,0.734131,-0.233887,0.618408,0.121951,0.853659,-0.731707,1
11:31:37.635,0.733398,-0.245850,0.620605,2.012195,0.457317,-0.365854,1
11:31:37.671,0.735596,-0.248291,0.618896,-0.030488,0.213415,-0.487805,1
11:31:37.703,0.736816,-0.242432,0.617188,0.518293,0.304878,-0.762195,1
11:31:37.719,0.737793,-0.231689,0.631348,-1.189024,0.426829,-1.067073,1
11:31:37.777,0.731445,-0.243652,0.611816,2.378049,-0.640244,-0.975610,1
11:31:37.809,0.739258,-0.254883,0.609619,0.365854,-1.128049,-1.798781,1
11:31:37.841,0.744873,-0.235596,0.616211,-0.335366,-0.396341,-1.890244,1
11:31:37.873,0.746094,-0.240479,0.624268,1.067073,0.945122,-0.914634,1
11:31:37.914,0.753906,-0.251465,0.630371,0.579268,1.890244,-1.341463,1
11:31:37.925,0.751709,-0.228760,0.629639,-2.225610,2.195122,-2.439024,1
11:31:37.952,0.739258,-0.228760,0.619629,0.060976,2.134146,-2.896342,1
11:31:37.989,0.740723,-0.223633,0.622803,-0.670732,2.164634,-3.567073,1
11:31:38.023,0.742188,-0.223145,0.625244,-1.189024,2.134146,-4.664634,1
11:31:38.055,0.739502,-0.229980,0.617188,-0.182927,1.890244,-4.481708,1
11:31:38.088,0.741943,-0.224609,0.622803,-1.493902,2.164634,-4.725610,1
11:31:38.130,0.740723,-0.240723,0.623047,-0.518293,1.707317,-4.725610,1
11:31:38.163,0.744385,-0.239502,0.619873,-0.304878,1.646342,-5.274390,1
11:31:38.197,0.740967,-0.235840,0.616455,-1.219512,2.439024,-5.335366,1
11:31:38.206,0.739014,-0.240234,0.626221,-0.670732,2.408537,-4.664634,1
11:31:38.259,0.736084,-0.243408,0.619385,-0.609756,1.829268,-4.603659,1
11:31:38.299,0.735352,-0.239746,0.614014,-0.335366,1.006098,-4.634147,1
11:31:38.308,0.734375,-0.235840,0.617676,0.335366,0.091463,-4.298780,1
11:31:38.360,0.729980,-0.242676,0.612305,0.365854,-0.274390,-3.384146,1
11:31:38.372,0.733154,-0.248779,0.618652,1.432927,-1.097561,-3.353659,1
11:31:38.408,0.737549,-0.233643,0.621582,0.457317,-0.579268,-3.140244,1
11:31:38.477,0.739990,-0.232422,0.612549,-0.548781,-1.036585,-2.500000,1
11:31:38.486,0.737061,-0.251709,0.619141,1.189024,-1.463415,-2.652439,1
11:31:38.515,0.735840,-0.238525,0.622314,0.274390,-0.060976,-3.109756,1
11:31:38.548,0.743652,-0.228271,0.617188,-1.707317,2.621951,-4.786585,1
11:31:38.580,0.742676,-0.219238,0.642334,-13.902439,8.506098,-6.554878,1
11:31:38.611,0.743652,-0.230713,0.634766,-2.469512,5.823171,-5.945122,1
11:31:38.646,0.724854,-0.238037,0.626709,-5.731708,5.243903,-8.780488,1
11:31:38.680,0.732178,-0.153320,0.605957,-8.506098,5.975610,-6.006098,1
11:31:38.717,0.721191,-0.242188,0.641357,3.963415,2.195122,-3.231707,1
11:31:38.749,0.752197,-0.250000,0.634766,9.542684,2.987805,-1.524390,1
11:31:38.780,0.762939,-0.234131,0.659668,1.737805,4.542683,-0.701220,1
11:31:38.824,0.747314,-0.225586,0.640625,3.780488,4.939024,-0.060976,1
11:31:38.855,0.758057,-0.243652,0.638428,3.841464,5.365854,2.012195,1
11:31:38.893,0.758789,-0.271240,0.659668,1.768293,5.945122,4.847561,1
11:31:38.908,0.750977,-0.212891,0.632812,-9.207317,8.841464,6.920732,1
11:31:38.930,0.738770,-0.239990,0.595215,6.524390,8.963415,8.750000,1
11:31:38.988,0.708740,-0.281250,0.634521,14.847561,7.073171,9.268293,1
11:31:38.996,0.753174,-0.236816,0.591553,4.573171,6.006098,7.652439,1
11:31:39.047,0.697754,-0.242676,0.625244,-1.463415,2.652439,2.225610,1
11:31:39.083,0.678711,-0.224365,0.625000,1.189024,-1.402439,-0.518293,1
11:31:39.092,0.673584,-0.212891,0.613525,2.256098,-2.865854,-0.060976,1
11:31:39.143,0.697021,-0.256592,0.636719,4.847561,-4.695122,0.274390,1
11:31:39.155,0.711914,-0.243896,0.645752,3.414634,-4.085366,-0.304878,1
11:31:39.180,0.712646,-0.237061,0.658936,1.128049,-2.042683,-0.274390,1
11:31:39.256,0.723389,-0.240967,0.657471,1.859756,-0.274390,-1.097561,1
11:31:39.264,0.719727,-0.238037,0.673340,0.213415,-0.091463,-1.006098,1
11:31:39.291,0.718994,-0.222900,0.662109,-5.030488,1.006098,-1.707317,1
11:31:39.325,0.727051,-0.235596,0.654053,-2.926829,0.579268,-1.371951,1
11:31:39.356,0.723389,-0.241699,0.649902,-0.091463,0.731707,-1.371951,1
11:31:39.386,0.718262,-0.238281,0.654297,-0.091463,1.310976,-1.402439,1
11:31:39.421,0.719971,-0.227295,0.650391,-1.371951,1.737805,-1.829268,1
11:31:42.773,0.733154,-0.250977,0.632812,1.707317,0.975610,-0.853659,1
11:31:42.799,0.729004,-0.245605,0.629883,0.396341,0.457317,-0.945122,1
11:31:42.830,0.727051,-0.246338,0.623535,1.128049,0.945122,-1.006098,1
11:31:42.863,0.730469,-0.250000,0.626465,0.518293,1.280488,-0.853659,1
11:31:42.908,0.730713,-0.240967,0.633057,0.274390,1.707317,-1.463415,1
11:31:42.939,0.733398,-0.246094,0.627441,1.798781,1.402439,-0.670732,1
11:31:42.975,0.736572,-0.244629,0.636475,-1.463415,1.981707,-1.341463,1
11:31:43.012,0.729980,-0.237061,0.627197,-1.493902,2.591464,-2.804878,1
11:31:43.043,0.725586,-0.239746,0.629150,-2.408537,2.042683,-3.536585,1
11:31:43.075,0.736816,-0.239014,0.632324,-2.439024,2.560976,-3.140244,1
11:31:43.107,0.735840,-0.239990,0.626953,-2.378049,2.957317,-3.628049,1
11:31:43.142,0.728760,-0.225586,0.634033,-3.871951,3.201220,-4.817073,1
11:31:43.178,0.725098,-0.235840,0.627441,-1.554878,2.926829,-4.969512,1
11:31:43.187,0.732422,-0.233398,0.633545,-2.713415,2.835366,-5.365854,1
11:31:43.241,0.728760,-0.234131,0.629395,-2.042683,2.591464,-5.762195,1
11:31:43.266,0.722168,-0.252441,0.626953,-0.518293,2.012195,-5.365854,1
11:31:43.282,0.726074,-0.251953,0.637695,-2.103659,2.195122,-4.634147,1
11:31:43.336,0.723877,-0.254639,0.625977,-1.768293,2.164634,-4.664634,1
11:31:43.373,0.725830,-0.241943,0.629639,-2.439024,1.463415,-5.060976,1
11:31:43.381,0.722168,-0.248535,0.628174,-1.951220,1.250000,-4.847561,1
11:31:43.441,0.725586,-0.248047,0.635498,-1.219512,1.097561,-4.420732,1
11:31:43.454,0.729492,-0.248047,0.637695,-0.152439,0.853659,-3.719512,1
11:31:43.503,0.725098,-0.250732,0.636475,-0.640244,0.731707,-3.506098,1
11:31:43.538,0.718506,-0.244141,0.641846,1.250000,0.213415,-3.445122,1
11:31:43.570,0.718994,-0.249756,0.641357,1.615854,-0.426829,-2.896342,1
11:31:43.578,0.724854,-0.239502,0.630615,1.310976,-0.182927,-3.201220,1
11:31:43.631,0.721436,-0.245605,0.632568,0.884146,-0.243902,-2.347561,1
11:31:43.663,0.720703,-0.250488,0.641357,-2.256098,0.701220,-0.030488,1
11:31:43.695,0.721924,-0.258057,0.638428,1.676829,2.530488,-0.640244,1
11:31:43.713,0.727051,-0.241699,0.642822,-2.957317,3.689024,-4.481708,1
11:31:43.750,0.740234,-0.187012,0.644043,-21.219513,8.231708,-10.213415,1
11:31:43.788,0.724854,-0.229492,0.648438,-8.384147,2.896342,-10.213415,1
11:31:43.825,0.706299,-0.224609,0.572021,0.762195,1.432927,-4.786585,1
11:31:43.854,0.741211,-0.258545,0.640625,-2.804878,1.128049,-4.359756,1
11:31:43.887,0.754150,-0.248291,0.661865,0.823171,2.957317,-2.804878,1
11:31:43.919,0.747314,-0.246582,0.653809,2.713415,3.658537,-1.341463,1
11:31:43.951,0.745605,-0.241699,0.657471,2.591464,4.725610,0.213415,1
11:31:43.961,0.741699,-0.255615,0.662109,4.146341,4.725610,3.262195,1
11:31:44.018,0.722412,-0.253662,0.620850,3.628049,3.689024,4.298780,1
11:31:44.053,0.734619,-0.273438,0.620850,8.719512,3.902439,7.530488,1
11:31:44.085,0.742188,-0.281250,0.620361,11.676829,1.737805,9.664635,1
11:31:44.131,0.692627,-0.160889,0.613037,1.006098,-0.731707,5.640244,1
11:31:44.138,0.699463,-0.251221,0.566650,10.457317,-2.896342,0.030488,1
11:31:44.169,0.695801,-0.220459,0.626709,3.140244,-4.024390,-0.609756,1
11:31:44.225,0.720459,-0.218506,0.647217,0.365854,-2.469512,-2.012195,1
11:31:44.232,0.716797,-0.247070,0.659668,4.451220,-1.737805,-0.091463,1
11:31:44.266,0.721680,-0.236084,0.658203,2.347561,0.060976,-0.670732,1
11:31:44.293,0.719971,-0.228516,0.667725,-0.609756,1.158537,-0.884146,1
11:31:44.336,0.715088,-0.239258,0.666260,1.829268,1.158537,-0.823171,1
11:31:44.365,0.715820,-0.248535,0.648926,1.310976,1.615854,-1.341463,1
11:31:44.398,0.723389,-0.219482,0.642334,0.945122,3.079268,-1.463415,1
11:31:44.438,0.729004,-0.241455,0.657959,0.426829,2.835366,-1.250000,1
11:31:44.465,0.732910,-0.233887,0.655762,-0.152439,2.225610,-1.006098,1
11:31:44.493,0.721436,-0.236084,0.627930,-0.182927,3.109756,-0.213415,1
11:31:47.886,0.718018,-0.242432,0.628662,1.280488,-0.152439,-1.371951,1
11:31:47.923,0.730957,-0.243896,0.645508,-2.073171,1.158537,-1.493902,1
11:31:47.954,0.722656,-0.249023,0.638428,-0.060976,0.213415,-1.646342,1
11:31:47.994,0.718750,-0.248291,0.626465,0.670732,0.274390,-1.250000,1
11:31:48.026,0.728027,-0.238770,0.633545,-0.701220,0.731707,-1.524390,1
11:31:48.061,0.729248,-0.241943,0.635254,0.457317,0.670732,-1.432927,1
11:31:48.098,0.729736,-0.245361,0.635498,-0.609756,0.884146,-1.493902,1
11:31:48.130,0.728516,-0.241943,0.635010,-0.670732,1.341463,-1.646342,1
11:31:48.163,0.728516,-0.249268,0.636719,1.646342,0.853659,-1.341463,1
11:31:48.170,0.723633,-0.242432,0.631348,-0.091463,1.097561,-1.890244,1
11:31:48.222,0.721191,-0.248779,0.638916,1.707317,0.670732,-1.371951,1
11:31:48.256,0.723877,-0.240723,0.632812,-0.457317,0.640244,-1.859756,1
11:31:48.262,0.726807,-0.242920,0.636963,0.518293,0.914634,-1.859756,1
11:31:48.319,0.732178,-0.248779,0.629150,1.463415,0.975610,-1.341463,1
11:31:48.327,0.735107,-0.239014,0.636475,0.182927,0.640244,-1.554878,1
11:31:48.385,0.731445,-0.247070,0.629395,1.250000,1.280488,-0.731707,1
11:31:48.420,0.734131,-0.240479,0.636475,0.121951,1.859756,-0.945122,1
11:31:48.453,0.728516,-0.234619,0.635498,-0.213415,1.951220,-1.402439,1
11:31:48.464,0.739014,-0.227539,0.629150,0.274390,2.865854,-2.042683,1
11:31:48.493,0.741943,-0.217285,0.643799,-1.524390,3.262195,-3.445122,1
11:31:48.549,0.743164,-0.216553,0.638428,-0.274390,3.353659,-4.054878,1
11:31:48.583,0.738037,-0.226074,0.649902,-0.518293,3.597561,-4.786585,1
11:31:48.598,0.726074,-0.213135,0.635010,-3.262195,4.115854,-5.914634,1
11:31:48.632,0.724609,-0.215088,0.637695,-3.719512,4.054878,-6.981708,1
11:31:48.668,0.708740,-0.237793,0.634033,-1.920732,3.018293,-7.682927,1
11:31:48.706,0.722412,-0.233154,0.628174,-3.750000,2.835366,-8.140244,1
11:31:48.749,0.727051,-0.239746,0.634766,-2.256098,2.743902,-7.347561,1
11:31:48.780,0.724854,-0.251953,0.633057,-1.920732,2.012195,-5.975610,1
11:31:48.814,0.718262,-0.250000,0.634521,-1.158537,1.371951,-5.640244,1
11:31:48.851,0.714355,-0.250488,0.626221,-0.030488,0.518293,-4.176829,1
11:31:48.859,0.714600,-0.249512,0.634521,-0.243902,-0.091463,-3.414634,1
11:31:48.915,0.711182,-0.242188,0.638428,-0.243902,-0.609756,-2.987805,1
11:31:48.947,0.714111,-0.249512,0.641846,0.701220,-1.280488,-3.079268,1
11:31:48.955,0.717041,-0.238525,0.644043,-1.219512,-1.006098,-2.804878,1
11:31:49.007,0.728516,-0.242432,0.649170,1.189024,-0.762195,-1.158537,1
11:31:49.044,0.733887,-0.242920,0.636963,0.579268,-0.274390,-1.219512,1
11:31:49.051,0.730957,-0.227783,0.638184,-3.475610,-0.121951,-2.987805,1
11:31:49.101,0.712402,-0.220459,0.612793,0.823171,-0.792683,-2.256098,1
11:31:49.108,0.734375,-0.218506,0.620605,0.609756,1.432927,-3.597561,1
11:31:49.163,0.744629,-0.203369,0.647461,-9.573171,4.725610,-7.560976,1
11:31:49.197,0.734131,-0.212646,0.625488,-8.079268,2.896342,-8.445122,1
11:31:49.234,0.708496,-0.235840,0.633301,2.134146,-1.036585,-9.786586,1
11:31:49.243,0.749268,-0.203857,0.593018,-2.286585,0.060976,-7.865854,1
11:31:49.274,0.747559,-0.229248,0.680664,-4.176829,1.097561,-5.121951,1
11:31:49.307,0.758057,-0.275146,0.681396,4.298780,3.567073,-1.189024,1
11:31:49.363,0.741699,-0.263916,0.670166,7.774390,4.695122,1.585366,1
11:31:49.396,0.741699,-0.211182,0.673584,2.134146,6.585366,2.378049,1
11:31:49.417,0.740723,-0.236084,0.664062,3.628049,7.591464,3.353659,1
11:31:49.453,0.759766,-0.194580,0.631592,-4.085366,7.652439,2.225610,1
11:31:49.484,0.739990,-0.229248,0.618896,-1.920732,6.006098,0.304878,1
11:31:49.516,0.761230,-0.182373,0.547363,0.579268,5.670732,6.554878,1
11:31:49.550,0.746826,-0.309814,0.593018,8.810976,2.865854,6.250000,1
11:31:49.582,0.715820,-0.217529,0.661377,-1.615854,2.743902,1.585366,1
11:31:49.618,0.683838,-0.230225,0.658691,2.012195,0.823171,0.701220,1
11:31:49.651,0.672607,-0.239258,0.646240,2.317073,-1.006098,-0.060976,1
11:31:49.684,0.676025,-0.229004,0.649658,2.317073,-2.896342,-1.768293,1
11:31:49.719,0.690918,-0.227539,0.633789,1.585366,-2.378049,-2.865854,1
11:31:49.751,0.710693,-0.230225,0.655762,0.640244,-1.707317,-2.317073,1
11:31:49.786,0.721191,-0.232910,0.681152,-1.615854,-1.250000,-1.463415,1
11:31:49.824,0.722412,-0.244873,0.654541,1.524390,-0.579268,-0.518293,1
11:31:49.834,0.721680,-0.232666,0.648926,0.426829,-0.182927,-0.091463,1
11:31:49.875,0.723877,-0.229248,0.653320,1.493902,-0.091463,-0.579268,1
11:31:53.543,0.729492,-0.252197,0.629639,1.158537,-0.579268,-1.676829,1
11:31:53.579,0.725342,-0.258545,0.629395,1.920732,-0.548781,-1.463415,1
11:31:53.617,0.730957,-0.257568,0.621338,2.408537,0.365854,-1.646342,1
11:31:53.652,0.737305,-0.248047,0.622070,-0.213415,0.945122,-1.158537,1
11:31:53.686,0.734863,-0.258545,0.625977,1.707317,0.640244,-1.006098,1
11:31:53.719,0.729004,-0.250000,0.625977,0.975610,0.823171,-0.792683,1
11:31:53.756,0.733154,-0.250977,0.623535,-0.365854,1.493902,-1.067073,1
11:31:53.790,0.731934,-0.251953,0.622070,0.884146,1.310976,-1.006098,1
11:31:53.825,0.731689,-0.250000,0.621094,0.884146,0.701220,-0.762195,1
11:31:53.868,0.734375,-0.247803,0.616455,0.274390,1.524390,-1.432927,1
11:31:53.877,0.739502,-0.249268,0.624756,-0.243902,2.256098,-1.585366,1
11:31:53.933,0.742676,-0.242920,0.631592,-2.073171,2.042683,-2.286585,1
11:31:53.941,0.739502,-0.242432,0.629150,-0.945122,3.140244,-2.896342,1
11:31:53.976,0.738770,-0.227539,0.628418,-1.463415,2.591464,-4.146341,1
11:31:54.011,0.739014,-0.229736,0.632568,-0.548781,2.012195,-4.817073,1
11:31:54.045,0.737793,-0.229492,0.631348,-0.487805,2.225610,-5.304878,1
11:31:54.077,0.725830,-0.231201,0.627686,-0.030488,2.256098,-5.518293,1
11:31:54.110,0.727295,-0.233887,0.631592,-0.030488,2.134146,-6.463415,1
11:31:54.146,0.728271,-0.242676,0.625732,-1.128049,1.707317,-6.737805,1
11:31:54.177,0.734619,-0.244385,0.623291,-1.951220,2.164634,-6.463415,1
11:31:54.210,0.725830,-0.253906,0.627441,-0.884146,1.036585,-6.128049,1
11:31:54.250,0.724854,-0.240967,0.622314,-1.432927,1.006098,-5.792683,1
11:31:54.277,0.725098,-0.245605,0.623535,-0.518293,0.762195,-4.878049,1
11:31:54.319,0.722412,-0.250000,0.632812,-1.097561,0.548781,-4.664634,1
11:31:54.331,0.721436,-0.252686,0.629883,-1.920732,1.006098,-4.268293,1
11:31:54.369,0.723877,-0.248291,0.626709,-2.408537,0.640244,-3.963415,1
11:31:54.397,0.725830,-0.260254,0.629639,0.487805,-0.152439,-2.835366,1
11:31:54.424,0.727051,-0.263916,0.628418,0.975610,-0.243902,-1.432927,1
11:31:54.456,0.729980,-0.251465,0.632080,0.823171,-0.365854,-1.006098,1
11:31:54.491,0.726318,-0.239014,0.622070,-1.158537,0.091463,-1.585366,1
11:31:54.532,0.726074,-0.239746,0.627930,1.280488,-1.951220,-2.378049,1
11:31:54.563,0.733643,-0.212158,0.584961,-0.274390,-0.091463,-3.445122,1
11:31:54.596,0.744873,-0.211182,0.616943,-5.731708,2.317073,-5.731708,1
11:31:54.630,0.777832,-0.221924,0.610596,1.189024,3.140244,-5.701220,1
11:31:54.662,0.746338,-0.234619,0.614014,-3.963415,1.829268,-7.865854,1
11:31:54.698,0.700928,-0.208496,0.691406,0.640244,1.189024,-12.896341,1
11:31:54.734,0.759521,-0.268311,0.655273,0.243902,1.493902,-5.396342,1
11:31:54.776,0.748535,-0.235352,0.679443,0.609756,2.164634,-3.414634,1
11:31:54.807,0.748779,-0.248047,0.637939,9.268293,2.469512,-1.707317,1
11:31:54.823,0.749756,-0.221436,0.622559,0.396341,2.378049,-1.189024,1
11:31:54.865,0.766846,-0.214600,0.638428,1.951220,4.207317,0.670732,1
11:31:54.902,0.759766,-0.234863,0.637451,3.963415,5.335366,2.865854,1
11:31:54.909,0.761963,-0.207520,0.630127,-8.993902,6.951220,3.963415,1
11:31:54.964,0.727051,-0.201904,0.585693,4.542683,4.634147,7.347561,1
11:31:54.972,0.697998,-0.281982,0.568604,19.878050,0.853659,3.902439,1
11:31:55.001,0.746338,-0.178467,0.593262,11.006098,2.530488,4.115854,1
11:31:55.057,0.749023,-0.212646,0.735596,-7.621952,4.664634,3.231707,1
11:31:55.095,0.697998,-0.253174,0.679932,-2.621951,2.012195,0.884146,1
11:31:55.102,0.688965,-0.234619,0.622559,2.896342,0.731707,1.432927,1
11:31:55.149,0.697754,-0.235596,0.635498,3.292683,-0.030488,1.128049,1
11:31:55.183,0.703857,-0.232178,0.637207,1.951220,-0.030488,0.243902,1
11:31:55.213,0.706055,-0.223877,0.657715,2.134146,-0.884146,-0.762195,1
11:31:55.245,0.720947,-0.221191,0.648682,-1.646342,0.121951,-1.158537,1
11:31:55.285,0.728271,-0.223389,0.643555,1.097561,0.701220,-0.792683,1
11:31:55.320,0.727539,-0.238281,0.647217,-1.890244,0.426829,-0.670732,1
11:31:55.354,0.723145,-0.219238,0.638428,-1.067073,0.030488,-1.006098,1
11:31:55.378,0.724365,-0.234619,0.634521,1.006098,-0.274390,-0.853659,1
11:31:58.781,0.729980,-0.248047,0.624512,1.371951,0.975610,-0.762195,1
11:31:58.827,0.732910,-0.252930,0.630127,0.213415,0.853659,-0.762195,1
11:31:58.851,0.729004,-0.248779,0.626709,0.579268,0.731707,-0.609756,1
11:31:58.883,0.728516,-0.255127,0.626221,2.195122,0.762195,-0.121951,1
11:31:58.919,0.731445,-0.245850,0.628662,0.762195,0.823171,-1.036585,1
11:31:58.994,0.731445,-0.244141,0.632080,1.676829,0.091463,-1.219512,1
11:31:59.008,0.728760,-0.246338,0.621582,0.914634,0.914634,-1.250000,1
11:31:59.022,0.733643,-0.246338,0.629395,0.792683,1.036585,-1.585366,1
11:31:59.059,0.731934,-0.240479,0.635010,-0.701220,0.853659,-1.798781,1
11:31:59.096,0.733398,-0.246582,0.624268,0.975610,1.036585,-1.859756,1
11:31:59.125,0.736328,-0.240967,0.629639,-0.731707,2.103659,-2.743902,1
11:31:59.157,0.737305,-0.236328,0.640137,-2.103659,2.804878,-3.658537,1
11:31:59.195,0.737549,-0.237793,0.631592,-2.256098,2.743902,-3.871951,1
11:31:59.203,0.736572,-0.246826,0.628418,-1.219512,2.865854,-3.810976,1
11:31:59.257,0.732422,-0.230469,0.634766,-2.774390,3.384146,-4.969512,1
