Time_stamp,Ax,Ay,Az,Gx,Gy,Gz,Label
16:27:19.572,-0.199219,-0.175293,0.971924,-14.207317,80.914635,-31.707317,
16:27:19.666,-0.197021,-0.160156,0.968506,-0.701220,0.000000,-1.158537,
16:27:19.666,-0.197021,-0.160156,0.968506,-1.646342,-0.396341,-1.310976,
16:27:19.681,-0.190186,-0.175537,0.972900,-1.402439,0.152439,-1.067073,
16:27:19.697,-0.193604,-0.194336,0.976318,1.250000,0.396341,-0.884146,
16:27:19.697,-0.193604,-0.194336,0.976318,2.012195,1.067073,-1.493902,
16:27:19.745,-0.197266,-0.182129,0.977295,2.682927,2.012195,-1.676829,
16:27:19.756,-0.203857,-0.176025,0.969238,1.158537,2.012195,-1.829268,
16:27:19.756,-0.203857,-0.176025,0.969238,0.091463,1.554878,-1.493902,
16:27:19.784,-0.198975,-0.166016,0.973389,0.579268,1.310976,-1.585366,
16:27:19.792,-0.197510,-0.184814,0.967529,1.920732,1.341463,-2.652439,
16:27:19.792,-0.197510,-0.184814,0.967529,2.256098,1.524390,-2.713415,
16:27:19.841,-0.196289,-0.171387,0.977051,2.439024,2.195122,-2.439024,
16:27:19.849,-0.198730,-0.167480,0.982666,2.987805,1.859756,-2.317073,
16:27:19.849,-0.198730,-0.167480,0.982666,3.963415,2.134146,-3.109756,
16:27:19.879,-0.189453,-0.177734,0.982666,5.670732,3.018293,-3.475610,
16:27:19.888,-0.186768,-0.178223,0.988281,6.890244,4.176829,-3.170732,
16:27:19.905,-0.190918,-0.170166,0.994385,7.560976,4.603659,-3.567073,
16:27:19.914,-0.187500,-0.177002,0.996826,10.853659,6.341464,-5.304878,
16:27:19.942,-0.185547,-0.182861,0.995605,13.262196,8.780488,-5.640244,
16:27:19.951,-0.196777,-0.151123,0.982178,13.018293,9.146341,-4.817073,
16:27:19.977,-0.209717,-0.156006,0.969971,13.048780,8.262196,-4.359756,
16:27:19.986,-0.222412,-0.194580,0.968018,17.012196,7.134147,-4.481708,
16:27:20.019,-0.215088,-0.205322,0.960449,18.658537,7.560976,-3.902439,
16:27:20.029,-0.228760,-0.184326,0.944336,17.256098,6.158537,0.670732,
16:27:20.065,-0.248047,-0.150879,0.927734,10.335366,2.256098,3.170732,
16:27:20.077,-0.256348,-0.145020,0.920654,7.042683,-0.487805,4.237805,
16:27:20.085,-0.242676,-0.142090,0.929199,3.932927,-3.841464,5.304878,
16:27:20.097,-0.231445,-0.149902,0.940918,5.152439,-5.945122,7.012195,
16:27:20.113,-0.231689,-0.143799,0.948975,5.487805,-6.310976,7.621952,
16:27:20.121,-0.241699,-0.135498,0.949463,7.042683,-8.109756,7.286585,
16:27:20.139,-0.234131,-0.109863,0.966064,6.158537,-9.237805,6.981708,
16:27:20.147,-0.220947,-0.104492,0.977295,7.134147,-9.634147,6.554878,
16:27:20.174,-0.208984,-0.112305,0.976807,10.091464,-8.567074,3.871951,
16:27:20.184,-0.203369,-0.094238,0.996338,11.280488,-8.048780,1.676829,
16:27:20.212,-0.190186,-0.089111,1.009766,11.402439,-7.378049,0.457317,
16:27:20.221,-0.178955,-0.091797,1.004395,10.152439,-5.030488,-0.884146,
16:27:20.232,-0.171875,-0.071289,1.000977,6.402439,-3.628049,-0.914634,
16:27:20.241,-0.165039,-0.089355,1.007568,5.335366,-2.713415,-0.762195,
16:27:20.275,-0.163330,-0.090088,1.012451,2.591464,-0.548781,-0.335366,
16:27:20.287,-0.162109,-0.088867,1.015869,0.121951,0.884146,-0.792683,
16:27:20.316,-0.167969,-0.110352,1.011719,0.609756,1.158537,-0.975610,
16:27:20.328,-0.166016,-0.108398,1.004150,0.609756,2.682927,-0.640244,
16:27:20.344,-0.178223,-0.096436,0.977539,-0.548781,2.530488,0.396341,
16:27:20.354,-0.201660,-0.107666,0.975586,-0.121951,1.493902,1.097561,
16:27:20.380,-0.199707,-0.108154,0.977295,0.640244,1.128049,0.548781,
16:27:20.388,-0.214355,-0.115723,0.971680,3.170732,-0.030488,-0.884146,
16:27:20.388,-0.214355,-0.115723,0.971680,3.628049,-0.762195,-1.768293,
16:27:20.405,-0.208984,-0.080566,0.984863,3.292683,-1.463415,-1.493902,
16:27:20.420,-0.198486,-0.093994,0.971191,2.804878,-2.317073,-0.975610,
16:27:20.420,-0.198486,-0.093994,0.971191,2.347561,-3.018293,-1.310976,
16:27:20.466,-0.198486,-0.105713,0.976807,3.384146,-4.237805,-2.286585,
16:27:20.498,-0.179443,-0.116699,0.986572,5.701220,-4.664634,-3.719512,
16:27:20.498,-0.179443,-0.116699,0.986572,7.195122,-5.701220,-4.512195,
16:27:20.516,-0.192871,-0.106201,0.984863,3.506098,-4.878049,-2.103659,
16:27:20.534,-0.163086,-0.050049,1.090088,-8.109756,-3.841464,-1.402439,
16:27:20.534,-0.163086,-0.050049,1.090088,-7.865854,-3.841464,-0.670732,
16:27:20.553,-0.208984,-0.203613,1.018066,2.865854,-1.371951,-0.701220,
16:27:20.567,-0.221436,-0.094238,0.899414,0.762195,-6.036585,3.658537,
16:27:20.567,-0.221436,-0.094238,0.899414,-3.231707,-11.524390,5.182927,
16:27:20.609,-0.194336,-0.108398,1.063965,-2.530488,-11.097561,1.615854,
16:27:20.622,-0.116699,-0.134277,1.060791,4.085366,-2.347561,2.743902,
16:27:20.622,-0.116699,-0.134277,1.060791,7.957317,1.097561,0.426829,
16:27:20.679,-0.145264,-0.085938,0.966553,7.591464,0.304878,-2.103659,
16:27:20.687,-0.146729,-0.015381,0.927979,-0.548781,-1.280488,-2.500000,
16:27:20.687,-0.146729,-0.015381,0.927979,-4.969512,-1.646342,0.060976,
16:27:20.712,-0.112061,0.000732,0.941406,-7.469512,0.518293,-0.243902,
16:27:20.721,-0.125488,-0.080078,0.932617,-3.719512,0.243902,-0.213415,
16:27:20.742,-0.143799,-0.072998,0.953613,-3.506098,0.060976,-1.250000,
16:27:20.750,-0.144775,-0.074463,0.991699,-2.500000,1.280488,0.121951,
16:27:20.776,-0.128906,-0.096436,1.088623,1.402439,6.219512,-1.280488,
16:27:20.793,-0.150391,-0.122070,1.070312,3.750000,8.506098,-3.079268,
16:27:20.808,-0.161133,-0.095703,1.036865,6.006098,10.335366,-4.420732,
16:27:20.819,-0.207275,-0.055664,0.923340,3.323171,7.835366,-1.097561,
16:27:20.842,-0.234863,-0.027344,0.855957,-0.060976,4.878049,-0.945122,
16:27:20.854,-0.216309,-0.031738,0.907471,-10.182927,0.548781,-1.890244,
16:27:20.878,-0.139160,-0.097412,1.043945,-6.829268,1.737805,-2.164634,
16:27:20.885,-0.123291,-0.159180,1.088135,-3.902439,4.451220,-2.256098,
16:27:20.893,-0.141357,-0.153320,1.100586,6.463415,7.804878,-4.664634,
16:27:20.928,-0.172363,-0.140869,1.052734,9.054878,13.689025,-15.609756,
16:27:20.936,-0.214844,0.022217,0.990479,2.439024,13.353659,-15.914635,
16:27:20.967,-0.224365,0.038574,0.992920,-8.536586,10.945122,-15.670732,
16:27:20.983,-0.193848,-0.076904,0.998779,-5.762195,11.250000,-18.140244,
16:27:20.992,-0.177246,-0.126709,0.996094,-4.085366,11.219513,-18.384148,
16:27:21.003,-0.176270,-0.110107,0.997803,-6.585366,9.847561,-17.804878,
16:27:21.009,-0.183838,-0.091553,0.956299,-11.158537,7.621952,-16.615854,
16:27:21.035,-0.187500,-0.118896,0.944580,-11.768293,6.310976,-15.823171,
16:27:21.045,-0.188721,-0.129395,0.956299,-10.426829,5.121951,-16.128050,
16:27:21.067,-0.181885,-0.140381,0.987793,-10.000000,5.914634,-16.219513,
16:27:21.073,-0.184326,-0.152100,0.998535,-10.335366,6.432927,-15.823171,
16:27:21.081,-0.194092,-0.156250,0.993896,-9.542684,8.018292,-14.512196,
16:27:21.114,-0.191895,-0.170654,0.993896,-7.804878,9.634147,-13.048780,
16:27:21.120,-0.194092,-0.174316,0.993652,-7.743903,10.060976,-12.469513,
16:27:21.149,-0.196533,-0.169189,0.978516,-7.469512,9.390244,-11.189025,
16:27:21.157,-0.203125,-0.174316,0.964111,-6.737805,8.902439,-10.335366,
16:27:21.187,-0.206787,-0.187744,0.966797,-5.731708,8.079268,-10.121951,
16:27:21.194,-0.205322,-0.186279,0.965820,-4.268293,7.195122,-10.091464,
16:27:21.221,-0.215088,-0.192871,0.960938,-2.713415,6.250000,-9.298780,
16:27:21.221,-0.215088,-0.192871,0.960938,-3.018293,5.945122,-9.481708,
16:27:21.235,-0.224609,-0.165771,0.962402,-5.640244,4.146341,-7.073171,
16:27:21.254,-0.227539,-0.198730,0.949219,-5.365854,3.170732,-5.640244,
16:27:21.254,-0.227539,-0.198730,0.949219,-4.359756,2.530488,-4.451220,
16:27:21.295,-0.236328,-0.233643,0.941895,-0.914634,-0.091463,-1.737805,
16:27:21.302,-0.230225,-0.237061,0.947510,2.317073,-1.615854,-0.365854,
16:27:21.302,-0.230225,-0.237061,0.947510,3.475610,-2.530488,0.914634,
16:27:21.345,-0.230957,-0.211182,0.954834,2.926829,-3.506098,3.658537,
16:27:21.381,-0.234863,-0.193604,0.960449,2.439024,-4.634147,5.518293,
16:27:21.381,-0.234863,-0.193604,0.960449,2.439024,-4.756098,6.371952,
16:27:21.400,-0.219971,-0.191406,0.966309,3.506098,-4.969512,7.347561,
16:27:21.410,-0.213379,-0.185303,0.974121,6.097561,-4.969512,7.225610,
16:27:21.410,-0.213379,-0.185303,0.974121,6.189024,-4.573171,6.676829,
16:27:21.455,-0.211182,-0.143066,0.980469,3.780488,-4.969512,5.914634,
16:27:21.463,-0.205322,-0.134033,0.976318,1.981707,-5.091464,5.152439,
16:27:21.463,-0.205322,-0.134033,0.976318,2.530488,-5.670732,5.182927,
16:27:21.487,-0.197021,-0.159180,0.968750,5.213415,-5.091464,2.713415,
16:27:21.500,-0.200195,-0.133789,0.984375,4.451220,-5.853659,2.256098,
16:27:21.500,-0.200195,-0.133789,0.984375,3.689024,-5.762195,2.225610,
16:27:21.546,-0.188721,-0.130371,0.986572,3.689024,-4.634147,1.615854,
16:27:21.554,-0.192383,-0.142822,0.992188,5.121951,-4.054878,-1.676829,
16:27:21.574,-0.190674,-0.141602,0.989258,6.432927,-3.932927,-3.414634,
16:27:21.582,-0.186279,-0.129395,0.988525,6.371952,-4.054878,-4.634147,
16:27:21.587,-0.199219,-0.140625,0.977539,0.213415,-5.365854,-2.256098,
16:27:21.617,-0.208008,-0.105957,1.063232,-6.280488,-7.164634,0.030488,
16:27:21.623,-0.212646,-0.160645,1.067871,-4.756098,-5.457317,1.676829,
16:27:21.655,-0.208984,-0.222656,1.001953,4.207317,-3.170732,0.579268,
16:27:21.662,-0.246826,-0.154297,0.935547,4.146341,-5.000000,2.530488,
16:27:21.684,-0.250732,-0.159668,0.933594,7.469512,-8.231708,4.115854,
16:27:21.691,-0.211182,-0.199463,0.931396,9.359756,-7.012195,5.304878,
16:27:21.702,-0.163574,-0.079102,1.019531,5.335366,-5.701220,8.201220,
16:27:21.736,-0.151855,-0.095947,1.036621,3.719512,-5.731708,3.932927,
16:27:21.743,-0.118896,-0.157471,1.011230,7.621952,-1.981707,-1.615854,
16:27:21.773,-0.114502,-0.058594,0.945557,5.609756,-0.579268,-1.128049,
16:27:21.781,-0.129639,-0.038086,0.933350,0.548781,-0.670732,-1.250000,
16:27:21.788,-0.101562,-0.085938,0.955811,1.219512,1.554878,-0.884146,
16:27:21.814,-0.116699,-0.144531,0.935791,3.719512,3.323171,-0.060976,
16:27:21.828,-0.150146,-0.140137,0.943359,7.560976,4.268293,-1.250000,
16:27:21.865,-0.167969,-0.100342,1.013428,4.878049,4.329268,0.000000,
16:27:21.882,-0.179932,-0.104004,1.044922,3.628049,5.457317,0.030488,
16:27:21.900,-0.200439,-0.106689,1.038818,2.500000,6.006098,-4.359756,
16:27:21.910,-0.188721,-0.090332,0.984375,1.310976,4.176829,-3.963415,
16:27:21.919,-0.187500,-0.136963,0.889648,2.774390,2.134146,-1.554878,
16:27:21.933,-0.191406,-0.166016,0.842773,6.189024,-1.128049,0.548781,
16:27:21.940,-0.177734,-0.109863,0.974365,0.670732,-0.396341,0.701220,
16:27:21.966,-0.116699,-0.109863,1.126709,-1.097561,0.701220,-0.884146,
16:27:21.973,-0.106934,-0.139404,1.125244,-3.506098,7.347561,0.548781,
16:27:22.000,-0.177979,-0.056885,1.049316,-8.658537,10.121951,5.000000,
16:27:22.013,-0.213379,-0.138184,1.048096,-6.585366,11.951220,0.701220,
16:27:22.034,-0.193359,-0.167969,1.028564,0.670732,16.554878,-6.128049,
16:27:22.045,-0.187012,-0.095947,1.025146,-2.195122,17.987804,-5.000000,
16:27:22.045,-0.187012,-0.095947,1.025146,-4.237805,17.682928,-6.128049,
16:27:22.077,-0.202393,-0.107910,0.976807,-5.457317,15.365854,-8.628049,
16:27:22.084,-0.205078,-0.119873,0.942139,-7.560976,11.646341,-10.365854,
16:27:22.084,-0.205078,-0.119873,0.942139,-7.804878,9.603659,-10.884147,
16:27:22.130,-0.201660,-0.116211,0.918701,-8.506098,7.865854,-10.487805,
16:27:22.149,-0.202637,-0.117676,0.973145,-9.146341,6.402439,-11.402439,
16:27:22.149,-0.202637,-0.117676,0.973145,-8.719512,6.768293,-12.042684,
16:27:22.170,-0.202881,-0.156738,0.985107,-8.414635,8.323171,-13.597561,
16:27:22.218,-0.212402,-0.141113,0.983154,-8.170732,8.658537,-14.237805,
16:27:22.218,-0.212402,-0.141113,0.983154,-7.743903,9.298780,-15.152439,
16:27:22.244,-0.210449,-0.158203,0.992920,-6.859756,10.304878,-15.335366,
16:27:22.257,-0.214844,-0.159668,0.959229,-8.750000,9.512196,-14.725610,
16:27:22.257,-0.214844,-0.159668,0.959229,-9.451220,8.140244,-14.695123,
16:27:22.282,-0.222656,-0.176514,0.941650,-8.932927,6.890244,-15.152439,
16:27:22.302,-0.223145,-0.190918,0.946045,-8.628049,5.335366,-15.640244,
16:27:22.302,-0.223145,-0.190918,0.946045,-8.445122,4.817073,-15.914635,
16:27:22.334,-0.230225,-0.193115,0.962158,-9.420732,3.689024,-15.640244,
16:27:22.357,-0.236572,-0.221680,0.944336,-7.957317,3.536585,-13.536586,
16:27:22.357,-0.236572,-0.221680,0.944336,-6.829268,3.018293,-11.920732,
16:27:22.379,-0.249023,-0.247070,0.949463,-4.878049,2.164634,-9.664635,
16:27:22.392,-0.252930,-0.259766,0.946777,-2.865854,0.792683,-7.164634,
16:27:22.405,-0.256836,-0.261963,0.936523,-2.073171,-0.243902,-5.853659,
16:27:22.416,-0.250488,-0.260254,0.936035,-1.036585,-1.737805,-2.926829,
16:27:22.434,-0.249268,-0.246582,0.942871,-0.640244,-2.865854,-0.914634,
16:27:22.445,-0.244629,-0.240967,0.952881,-0.365854,-3.262195,-0.335366,
16:27:22.471,-0.243408,-0.238037,0.954102,1.250000,-4.298780,1.463415,
16:27:22.483,-0.231934,-0.234131,0.957275,2.164634,-4.756098,1.951220,
16:27:22.508,-0.220459,-0.208984,0.965332,2.164634,-4.725610,2.347561,
16:27:22.529,-0.219971,-0.217285,0.970459,3.567073,-4.756098,2.134146,
16:27:22.549,-0.207520,-0.213379,0.961670,4.542683,-4.115854,3.018293,
16:27:22.563,-0.211182,-0.191895,0.962646,3.750000,-4.176829,3.871951,
16:27:22.574,-0.215576,-0.183105,0.963379,2.103659,-4.512195,3.963415,
16:27:22.585,-0.213379,-0.177490,0.972656,2.012195,-5.060976,3.384146,
16:27:22.601,-0.208496,-0.195068,0.970703,3.658537,-4.878049,2.164634,
16:27:22.619,-0.204102,-0.201904,0.972656,6.432927,-4.054878,0.731707,
16:27:22.633,-0.201172,-0.180908,0.978271,4.573171,-3.414634,1.219512,
16:27:22.645,-0.199951,-0.156250,0.987305,2.378049,-3.170732,1.158537,
16:27:22.679,-0.197021,-0.168701,0.982178,1.036585,-2.469512,0.457317,
16:27:22.689,-0.187012,-0.197998,0.976807,2.835366,-1.158537,-0.640244,
16:27:22.703,-0.192383,-0.178955,0.978760,2.530488,-0.853659,0.396341,
16:27:22.716,-0.200928,-0.178223,0.979004,0.792683,-1.067073,0.335366,
16:27:22.739,-0.204346,-0.186035,0.968750,0.091463,-0.762195,-0.274390,
16:27:22.752,-0.199463,-0.194336,0.966553,0.670732,-0.701220,-0.091463,
16:27:22.781,-0.202148,-0.197998,0.968994,2.408537,-0.731707,-0.426829,
16:27:22.791,-0.208740,-0.200684,0.967041,4.268293,-1.006098,-0.945122,
16:27:22.802,-0.211182,-0.185547,0.972168,3.963415,-1.463415,-0.975610,
16:27:22.823,-0.209473,-0.175293,0.971436,2.195122,-2.530488,-1.250000,
16:27:22.835,-0.208740,-0.187500,0.957031,3.353659,-3.323171,-2.134146,
16:27:22.844,-0.204346,-0.196045,0.963135,4.756098,-3.719512,-2.865854,
16:27:22.868,-0.205566,-0.200928,0.957031,7.652439,-4.817073,-4.756098,
16:27:22.881,-0.199219,-0.162354,0.996826,4.359756,-3.353659,-2.164634,
16:27:22.881,-0.199219,-0.162354,0.996826,4.176829,-1.981707,-0.853659,
16:27:22.902,-0.199463,-0.249023,1.038574,7.469512,-0.030488,-1.890244,
16:27:22.914,-0.218262,-0.223877,1.009521,5.701220,-2.652439,-0.975610,
16:27:22.914,-0.218262,-0.223877,1.009521,2.530488,-5.640244,0.884146,
16:27:22.943,-0.261963,-0.207764,0.957275,4.146341,-5.823171,-2.774390,
16:27:22.962,-0.199463,-0.180420,0.919189,8.628049,-5.487805,1.890244,
16:27:22.962,-0.199463,-0.180420,0.919189,9.451220,-5.792683,1.036585,
16:27:23.014,-0.160645,-0.142090,1.020020,6.554878,-3.689024,1.737805,
16:27:23.024,-0.128174,-0.209473,1.043945,12.073171,0.365854,-0.457317,
16:27:23.024,-0.128174,-0.209473,1.043945,12.378049,1.493902,-1.432927,
16:27:23.057,-0.156982,-0.092529,0.925049,7.500000,0.701220,-0.396341,
16:27:23.070,-0.153564,-0.047852,0.910645,2.926829,-0.426829,0.518293,
16:27:23.070,-0.153564,-0.047852,0.910645,1.554878,0.335366,0.731707,
16:27:23.103,-0.142334,-0.097900,0.996338,2.682927,2.865854,-1.097561,
16:27:23.112,-0.161621,-0.144043,0.989258,3.445122,4.359756,-3.201220,
16:27:23.112,-0.161621,-0.144043,0.989258,2.987805,3.902439,-3.810976,
16:27:23.162,-0.188721,-0.129395,0.936768,2.378049,3.018293,-2.743902,
16:27:23.180,-0.189209,-0.149902,0.971436,1.341463,3.871951,-2.682927,
16:27:23.180,-0.189209,-0.149902,0.971436,0.609756,4.420732,-2.774390,
16:27:23.207,-0.180664,-0.139404,1.000488,1.402439,4.695122,-1.006098,
16:27:23.220,-0.197266,-0.112793,0.939941,-1.341463,1.768293,1.310976,
16:27:23.229,-0.199707,-0.084473,0.831787,-2.560976,-0.762195,4.847561,
16:27:23.255,-0.199951,-0.102051,0.813477,-4.359756,-7.164634,9.634147,
16:27:23.266,-0.156250,-0.135498,1.035400,-8.902439,-6.067073,4.115854,
16:27:23.285,-0.089844,-0.252441,1.206543,-7.987805,-3.262195,-0.579268,
16:27:23.307,-0.070068,-0.241211,1.193604,-9.024390,10.914635,5.000000,
16:27:23.317,-0.175049,-0.156250,1.065918,-14.359756,17.347561,12.408537,
16:27:23.336,-0.248047,-0.272949,1.063477,-11.524390,19.878050,11.128049,
16:27:23.352,-0.223633,-0.304199,1.064941,0.060976,25.853659,3.353659,
16:27:23.360,-0.173340,-0.226562,1.063232,1.646342,29.847561,7.500000,
16:27:23.379,-0.207520,-0.141602,0.977539,-1.890244,28.902439,8.231708,
16:27:23.390,-0.233398,-0.139160,0.926025,-5.701220,23.384148,6.250000,
16:27:23.413,-0.222656,-0.171387,0.880615,-2.134146,18.750000,3.993902,
16:27:23.424,-0.205811,-0.147949,0.914795,-2.103659,17.317074,3.993902,
16:27:23.450,-0.208008,-0.136963,0.941895,-6.219512,14.969513,4.969512,
16:27:23.459,-0.213623,-0.165283,0.965088,-6.371952,15.091464,6.189024,
16:27:23.465,-0.236816,-0.191895,0.967773,-5.518293,15.670732,5.853659,
16:27:23.490,-0.256836,-0.200928,0.970703,-2.439024,15.579268,3.079268,
16:27:23.495,-0.266357,-0.186768,0.952393,0.182927,15.975610,1.067073,
16:27:23.526,-0.272461,-0.170654,0.961670,-0.975610,15.518293,0.762195,
16:27:23.533,-0.271973,-0.168457,0.953613,-3.597561,15.213415,2.073171,
16:27:23.564,-0.280029,-0.189453,0.935303,-6.158537,14.603659,3.109756,
16:27:23.575,-0.305664,-0.198975,0.904297,-7.134147,12.500000,4.024390,
16:27:23.584,-0.312012,-0.204590,0.900879,-6.128049,7.713415,5.731708,
16:27:23.608,-0.302734,-0.261230,0.911133,-0.762195,3.993902,7.347561,
16:27:23.618,-0.290283,-0.277588,0.919678,1.707317,3.536585,8.689025,
16:27:23.650,-0.299561,-0.254150,0.912598,2.560976,2.134146,12.865854,
16:27:23.663,-0.335205,-0.198975,0.916260,-0.731707,-0.914634,14.786586,
16:27:23.685,-0.334717,-0.189697,0.923340,-1.493902,-2.621951,14.847561,
16:27:23.697,-0.316162,-0.180176,0.945068,0.762195,-5.548780,14.634147,
16:27:23.723,-0.300781,-0.196777,0.970947,6.067073,-5.792683,11.036586,
16:27:23.723,-0.300781,-0.196777,0.970947,8.353659,-4.420732,9.207317,
16:27:23.747,-0.289795,-0.148438,0.933350,7.530488,-3.719512,10.945122,
16:27:23.757,-0.316162,-0.089844,0.927002,2.134146,-5.213415,10.487805,
16:27:23.757,-0.316162,-0.089844,0.927002,1.158537,-7.103659,9.359756,
16:27:23.810,-0.329834,-0.124756,0.952637,4.085366,-9.268293,4.756098,
16:27:23.859,-0.319092,-0.130859,0.935547,6.006098,-10.304878,2.073171,
16:27:23.859,-0.319092,-0.130859,0.935547,4.725610,-11.158537,1.829268,
16:27:23.879,-0.312744,-0.101318,0.916260,0.518293,-12.926829,0.975610,
16:27:23.890,-0.294922,-0.107666,0.923828,-0.487805,-13.871951,1.768293,
16:27:23.890,-0.294922,-0.107666,0.923828,0.426829,-13.871951,2.530488,
16:27:23.910,-0.263428,-0.164551,0.971191,2.865854,-12.073171,1.128049,
16:27:23.927,-0.249268,-0.164551,0.986816,3.048780,-10.487805,0.548781,
16:27:23.927,-0.249268,-0.164551,0.986816,1.646342,-9.573171,1.219512,
16:27:23.948,-0.239258,-0.125732,0.976562,0.335366,-8.048780,1.737805,
16:27:23.965,-0.232910,-0.162354,0.996826,1.432927,-6.006098,-1.310976,
16:27:23.965,-0.232910,-0.162354,0.996826,1.951220,-4.847561,-1.981707,
16:27:23.987,-0.223145,-0.156738,1.001953,1.951220,-3.414634,-1.432927,
16:27:23.997,-0.224365,-0.146973,0.978760,1.280488,-1.798781,-1.280488,
16:27:23.997,-0.224365,-0.146973,0.978760,0.884146,-1.615854,-0.914634,
16:27:24.038,-0.242188,-0.148438,0.966309,-0.640244,-2.012195,-0.396341,
16:27:24.048,-0.243408,-0.142578,0.972900,-2.469512,-2.042683,0.060976,
16:27:24.072,-0.244141,-0.146484,0.974609,-2.865854,-2.164634,0.213415,
16:27:24.083,-0.242432,-0.159668,0.974365,-0.884146,-2.378049,0.396341,
16:27:24.094,-0.242676,-0.172363,0.971436,2.926829,-1.219512,0.000000,
16:27:24.108,-0.238037,-0.171875,0.979492,4.207317,-0.426829,-0.274390,
16:27:24.127,-0.240967,-0.151855,0.979004,3.109756,0.487805,-0.243902,
16:27:24.145,-0.250488,-0.113770,0.976562,0.213415,-0.182927,-0.457317,
16:27:24.157,-0.242920,-0.140381,0.970215,0.670732,-0.274390,-1.189024,
16:27:24.166,-0.229736,-0.151611,0.966797,3.506098,1.097561,-3.750000,
16:27:24.194,-0.227783,-0.149658,0.975586,4.420732,1.676829,-4.878049,
16:27:24.205,-0.230469,-0.126465,0.971436,3.810976,2.042683,-5.152439,
16:27:24.229,-0.239502,-0.122314,0.962891,0.914634,1.493902,-4.329268,
16:27:24.249,-0.253418,-0.141113,0.968994,0.274390,0.579268,-4.695122,
16:27:24.268,-0.245117,-0.147949,0.968262,0.426829,0.640244,-4.451220,
16:27:24.279,-0.250732,-0.159424,0.960938,1.158537,-0.670732,-3.475610,
16:27:24.289,-0.251221,-0.175293,0.955322,3.323171,-1.951220,-3.841464,
16:27:24.311,-0.253418,-0.167236,0.949219,4.146341,-3.231707,-3.871951,
16:27:24.322,-0.251465,-0.170166,0.958740,6.890244,-4.939024,-5.853659,
16:27:24.349,-0.231201,-0.168457,0.993652,6.463415,0.579268,-3.841464,
16:27:24.367,-0.222412,-0.174072,1.069092,6.798780,2.408537,-2.347561,
16:27:24.383,-0.247314,-0.213867,1.033691,13.902439,2.103659,0.396341,
16:27:24.394,-0.281738,-0.151611,0.927002,9.054878,-1.067073,-4.603659,
16:27:24.414,-0.303955,-0.067139,0.918701,3.079268,-4.115854,-0.182927,
16:27:24.429,-0.285645,-0.081543,0.932617,-1.768293,-7.195122,6.768293,
16:27:24.461,-0.253174,-0.183105,1.018555,6.707317,-7.164634,5.670732,
16:27:24.471,-0.169678,-0.176758,1.045898,9.786586,-2.469512,3.963415,
16:27:24.488,-0.184570,-0.156250,1.032715,15.975610,1.158537,6.829268,
16:27:24.497,-0.199951,-0.157715,0.949951,14.664635,2.560976,0.091463,
16:27:24.508,-0.198975,-0.003662,0.904053,8.384147,0.335366,2.042683,
16:27:24.524,-0.191406,-0.008545,0.906250,1.981707,-1.829268,3.780488,
16:27:24.534,-0.152588,-0.090576,0.950195,4.451220,0.091463,0.426829,
16:27:24.534,-0.152588,-0.090576,0.950195,5.457317,1.371951,-0.548781,
16:27:24.579,-0.171387,-0.101562,0.958252,3.902439,1.981707,-1.676829,
16:27:24.590,-0.199463,-0.110840,0.980225,2.560976,1.768293,-0.274390,
16:27:24.590,-0.199463,-0.110840,0.980225,2.195122,1.463415,-0.335366,
16:27:24.616,-0.233398,-0.122070,1.028564,3.414634,1.981707,-3.018293,
16:27:24.649,-0.227051,-0.078125,0.959961,1.554878,1.250000,-2.804878,
16:27:24.649,-0.227051,-0.078125,0.959961,-0.975610,-0.579268,-1.219512,
16:27:24.670,-0.239258,-0.052246,0.841064,-8.323171,-3.536585,1.615854,
16:27:24.681,-0.258789,-0.068359,0.937988,-13.140244,-0.945122,5.000000,
16:27:24.681,-0.258789,-0.068359,0.937988,-10.548780,0.335366,3.475610,
16:27:24.734,-0.191895,-0.232666,1.160889,-4.298780,7.865854,-2.378049,
16:27:24.748,-0.245605,-0.109619,0.993652,-12.987805,11.737805,-0.213415,
16:27:24.748,-0.245605,-0.109619,0.993652,-16.371952,11.310976,3.262195,
16:27:24.784,-0.274902,-0.170410,0.993164,-7.804878,12.682927,4.573171,
16:27:24.799,-0.237549,-0.235840,1.053955,5.304878,16.890244,-5.914634,
16:27:24.799,-0.237549,-0.235840,1.053955,4.908537,17.378050,-6.158537,
16:27:24.830,-0.228271,-0.059082,0.947021,-3.170732,13.719513,-2.560976,
16:27:24.848,-0.249512,-0.076904,0.895752,-5.670732,10.548780,-4.207317,
16:27:24.848,-0.249512,-0.076904,0.895752,-5.701220,9.237805,-4.756098,
16:27:24.871,-0.254639,-0.104004,0.960449,-6.707317,7.621952,-6.128049,
16:27:24.883,-0.269287,-0.124023,0.981934,-6.341464,6.646342,-9.390244,
16:27:24.901,-0.263428,-0.140137,0.968994,-5.579268,7.378049,-10.762196,
16:27:24.907,-0.263184,-0.131836,0.970947,-5.426829,8.750000,-10.579268,
16:27:24.919,-0.262939,-0.131104,0.969238,-6.524390,9.634147,-10.243902,
16:27:24.927,-0.258301,-0.142822,0.968506,-7.195122,10.304878,-10.000000,
16:27:24.953,-0.264404,-0.146973,0.965332,-6.341464,9.420732,-10.030488,
16:27:24.959,-0.265869,-0.165039,0.951660,-4.817073,8.292683,-11.615854,
16:27:24.968,-0.272461,-0.166504,0.938477,-4.603659,7.591464,-12.530488,
16:27:25.002,-0.269775,-0.166748,0.944092,-4.115854,6.676829,-12.743903,
16:27:25.013,-0.269531,-0.163086,0.957764,-4.542683,6.524390,-12.957317,
16:27:25.040,-0.275635,-0.159424,0.957275,-4.908537,6.402439,-12.621951,
16:27:25.048,-0.273682,-0.159180,0.951172,-7.042683,6.829268,-11.463415,
16:27:25.060,-0.280029,-0.178955,0.958008,-7.195122,6.341464,-11.432927,
16:27:25.081,-0.278564,-0.206543,0.940918,-5.640244,6.493903,-11.707317,
16:27:25.090,-0.284912,-0.207275,0.936279,-2.926829,5.213415,-10.975610,
16:27:25.118,-0.294189,-0.206299,0.937012,-2.103659,4.024390,-10.487805,
16:27:25.125,-0.288574,-0.208740,0.938965,-2.225610,3.689024,-10.335366,
16:27:25.161,-0.291992,-0.195312,0.933838,-3.932927,2.042683,-8.780488,
16:27:25.172,-0.293213,-0.188477,0.931396,-3.567073,0.670732,-8.109756,
16:27:25.181,-0.284912,-0.217529,0.950928,-1.951220,0.213415,-8.475610,
16:27:25.205,-0.281006,-0.229248,0.949707,0.792683,0.030488,-9.847561,
16:27:25.215,-0.284668,-0.196045,0.942383,-0.762195,-0.457317,-8.810976,
16:27:25.243,-0.284668,-0.187744,0.936523,-2.286585,-1.189024,-7.652439,
16:27:25.254,-0.281250,-0.191162,0.937744,-2.164634,-1.890244,-6.371952,
16:27:25.264,-0.284424,-0.216797,0.947510,0.274390,-2.621951,-7.317073,
16:27:25.287,-0.277344,-0.216064,0.946533,1.250000,-2.682927,-7.469512,
16:27:25.297,-0.276855,-0.207520,0.943359,1.128049,-3.048780,-7.225610,
16:27:25.322,-0.276367,-0.197266,0.945312,0.884146,-2.987805,-5.213415,
16:27:25.332,-0.272217,-0.202148,0.960693,0.243902,-2.865854,-4.268293,
16:27:25.389,-0.270996,-0.208008,0.960938,-0.762195,-3.140244,-3.780488,
16:27:25.400,-0.261963,-0.198486,0.957275,-2.195122,-2.469512,-4.085366,
16:27:25.400,-0.261963,-0.198486,0.957275,-2.469512,-2.286585,-4.085366,
16:27:25.430,-0.256104,-0.209717,0.953857,-2.835366,-2.408537,-4.390244,
16:27:25.441,-0.262695,-0.213623,0.936768,-2.500000,-3.170732,-2.682927,
16:27:25.441,-0.262695,-0.213623,0.936768,-2.469512,-3.628049,-1.402439,
16:27:25.466,-0.276123,-0.230225,0.953369,-1.036585,-4.969512,-0.060976,
16:27:25.476,-0.268799,-0.243896,0.959717,1.402439,-4.481708,0.914634,
16:27:25.476,-0.268799,-0.243896,0.959717,1.798781,-4.146341,2.012195,
16:27:25.514,-0.262939,-0.228760,0.964600,2.835366,-4.085366,3.658537,
16:27:25.527,-0.255615,-0.219482,0.952148,3.932927,-3.993902,3.902439,
16:27:25.527,-0.255615,-0.219482,0.952148,4.542683,-3.719512,3.750000,
16:27:25.549,-0.255127,-0.205322,0.942627,5.274390,-5.426829,1.890244,
16:27:25.560,-0.253174,-0.192139,0.953613,6.524390,-6.768293,1.189024,
16:27:25.560,-0.253174,-0.192139,0.953613,7.926829,-8.353659,0.335366,
16:27:25.583,-0.262939,-0.209961,0.949707,13.658537,-11.250000,-3.506098,
16:27:25.603,-0.275146,-0.229248,0.921875,17.560976,-10.914635,-6.646342,
16:27:25.603,-0.275146,-0.229248,0.921875,12.347561,-5.152439,-2.195122,
16:27:25.649,-0.225586,-0.161377,1.070068,14.420732,-0.945122,11.646341,
16:27:25.670,-0.308105,-0.306885,1.003174,24.634148,-1.951220,-2.865854,
16:27:25.670,-0.308105,-0.306885,1.003174,20.243902,-2.957317,-1.554878,
16:27:25.684,-0.272217,-0.065430,0.957275,8.993902,-8.902439,7.926829,
16:27:25.689,-0.211182,-0.173096,0.987305,9.664635,-2.042683,4.908537,
16:27:25.714,-0.184082,-0.146729,0.990723,11.798780,-0.731707,5.823171,
16:27:25.720,-0.197510,-0.129883,0.979248,13.475610,-1.189024,0.853659,
16:27:25.754,-0.166992,-0.069336,0.953369,6.006098,-0.853659,-1.432927,
16:27:25.768,-0.149658,-0.060303,0.924805,2.621951,-0.579268,-1.524390,
16:27:25.801,-0.155029,-0.083740,0.902344,-0.091463,-0.060976,-1.280488,
16:27:25.812,-0.191650,-0.102051,0.847168,-2.439024,0.335366,-0.792683,
16:27:25.825,-0.226074,-0.083496,0.922363,-5.091464,-0.975610,0.365854,
16:27:25.841,-0.228271,-0.086426,0.936523,-9.146341,-2.896342,3.048780,
16:27:25.860,-0.233643,-0.129395,0.990967,-7.164634,-1.463415,1.676829,
16:27:25.870,-0.212402,-0.154541,1.102051,-5.518293,-1.250000,1.920732,
16:27:25.887,-0.209229,-0.202881,1.102783,-2.439024,5.335366,2.743902,
16:27:25.897,-0.235107,-0.174072,1.020996,2.591464,9.634147,1.006098,
16:27:25.917,-0.294434,-0.133057,0.979736,1.646342,9.847561,-3.292683,
16:27:25.927,-0.264404,-0.053223,1.022217,-14.786586,10.975610,-2.500000,
16:27:25.958,-0.234131,-0.153076,1.018066,-13.048780,12.103659,6.280488,
16:27:25.968,-0.231201,-0.283447,1.004883,-4.969512,14.878049,2.804878,
16:27:25.991,-0.232666,-0.264893,0.980469,5.853659,16.280489,-3.384146,
16:27:26.003,-0.230469,-0.130371,0.962891,0.457317,14.939025,-0.792683,
16:27:26.028,-0.262207,-0.112305,0.927490,-3.079268,12.621951,-0.792683,
16:27:26.039,-0.262939,-0.132812,0.922607,-6.219512,9.512196,-3.384146,
16:27:26.066,-0.274902,-0.150635,0.927490,-6.310976,6.859756,-4.268293,
16:27:26.076,-0.266602,-0.142334,0.952393,-6.798780,6.341464,-4.603659,
16:27:26.090,-0.269043,-0.157715,0.957520,-7.774390,5.823171,-5.975610,
16:27:26.100,-0.263916,-0.170410,0.959229,-6.432927,6.341464,-6.402439,
16:27:26.112,-0.261963,-0.174561,0.974609,-5.030488,6.768293,-6.067073,
16:27:26.138,-0.264648,-0.179932,0.986328,-2.621951,7.530488,-7.408537,
16:27:26.148,-0.273193,-0.173828,0.967529,-2.896342,6.737805,-9.908537,
16:27:26.177,-0.266602,-0.148926,0.940186,-3.780488,6.493903,-10.609756,
16:27:26.187,-0.257812,-0.148682,0.937256,-5.030488,6.981708,-9.725610,
16:27:26.212,-0.257568,-0.173096,0.958740,-6.341464,7.682927,-9.542684,
16:27:26.212,-0.257568,-0.173096,0.958740,-5.945122,7.804878,-9.420732,
16:27:26.241,-0.270264,-0.222412,0.968262,-3.109756,8.780488,-9.786586,
16:27:26.259,-0.278320,-0.212402,0.946045,-4.725610,8.506098,-9.878049,
16:27:26.259,-0.278320,-0.212402,0.946045,-6.128049,7.621952,-8.932927,
16:27:26.285,-0.280518,-0.214111,0.931152,-3.841464,6.585366,-9.298780,
16:27:26.298,-0.272461,-0.234375,0.952393,0.365854,6.280488,-10.274390,
16:27:26.298,-0.272461,-0.234375,0.952393,1.493902,6.189024,-10.060976,
16:27:26.322,-0.287598,-0.206787,0.937744,3.262195,4.939024,-9.176829,
16:27:26.335,-0.302246,-0.214600,0.939941,7.256098,4.817073,-9.359756,
16:27:26.335,-0.302246,-0.214600,0.939941,8.079268,6.250000,-10.396341,
16:27:26.377,-0.285889,-0.191895,0.953857,3.262195,6.951220,-8.993902,
16:27:26.387,-0.302002,-0.141113,0.954346,-2.957317,5.457317,-7.652439,
16:27:26.387,-0.302002,-0.141113,0.954346,-2.896342,5.426829,-9.024390,
16:27:26.438,-0.292236,-0.219727,0.928467,2.286585,4.542683,-10.609756,
16:27:26.464,-0.286865,-0.202148,0.929199,-0.365854,5.000000,-10.823171,
16:27:26.464,-0.286865,-0.202148,0.929199,-3.414634,4.451220,-10.518293,
16:27:26.486,-0.290771,-0.184082,0.942139,-6.951220,2.896342,-8.567074,
16:27:26.498,-0.291504,-0.228027,0.933105,-2.469512,2.682927,-9.603659,
16:27:26.498,-0.291504,-0.228027,0.933105,-0.030488,2.957317,-9.878049,
16:27:26.535,-0.294922,-0.227295,0.947266,0.670732,3.048780,-9.146341,
16:27:26.545,-0.301514,-0.213135,0.944824,-0.609756,2.378049,-8.536586,
16:27:26.571,-0.309326,-0.222656,0.925781,-0.609756,1.859756,-8.262196,
16:27:26.582,-0.308838,-0.239258,0.927246,1.646342,0.792683,-7.804878,
16:27:26.595,-0.295654,-0.248047,0.927979,3.963415,-0.670732,-7.012195,
16:27:26.607,-0.293457,-0.239014,0.930664,3.353659,-1.128049,-6.615854,
16:27:26.621,-0.287598,-0.222656,0.930420,0.731707,-1.554878,-4.847561,
16:27:26.637,-0.289795,-0.219238,0.923828,-1.067073,-2.347561,-3.262195,
16:27:26.651,-0.295410,-0.227539,0.923828,-1.189024,-2.896342,-3.323171,
16:27:26.661,-0.287354,-0.224121,0.935303,-0.701220,-3.140244,-2.103659,
16:27:26.673,-0.287842,-0.231934,0.951416,0.152439,-2.713415,-1.981707,
16:27:26.700,-0.287354,-0.232910,0.948486,1.554878,-2.774390,-1.798781,
16:27:26.712,-0.286621,-0.241699,0.941406,5.182927,-2.256098,-1.768293,
16:27:26.743,-0.286133,-0.225586,0.938965,4.847561,-2.530488,-1.768293,
16:27:26.767,-0.284912,-0.197266,0.937256,2.408537,-2.774390,-1.189024,
16:27:26.777,-0.287842,-0.187012,0.928955,-0.396341,-4.908537,0.335366,
16:27:26.792,-0.281006,-0.224365,0.926514,2.195122,-5.335366,-0.762195,
16:27:26.804,-0.279297,-0.239746,0.934570,4.146341,-5.640244,-2.042683,
16:27:26.816,-0.281494,-0.219727,0.946777,4.329268,-6.737805,-1.585366,
16:27:26.835,-0.274902,-0.205078,0.952637,2.408537,-7.256098,-1.250000,
16:27:26.850,-0.274902,-0.214111,0.938965,2.195122,-7.286585,-1.920732,
16:27:26.861,-0.273193,-0.208008,0.939209,1.768293,-7.164634,-2.256098,
16:27:26.893,-0.261230,-0.192139,0.949463,-1.768293,-7.378049,-0.762195,
16:27:26.909,-0.271973,-0.193359,0.930420,-3.628049,-7.774390,-0.274390,
16:27:26.922,-0.274902,-0.199463,0.924805,-4.847561,-8.902439,-0.304878,
16:27:26.932,-0.270264,-0.203369,0.932129,-4.969512,-11.158537,-0.701220,
16:27:26.956,-0.273682,-0.211426,0.919922,-3.536585,-12.591464,-1.250000,
16:27:26.966,-0.276855,-0.222900,0.922363,3.231707,-16.585365,-5.091464,
16:27:26.987,-0.260986,-0.270752,0.956299,6.554878,-10.121951,-8.414635,
16:27:26.998,-0.177002,-0.220947,1.108887,4.786585,-2.317073,-5.609756,
16:27:27.009,-0.212646,-0.305664,1.111572,17.195122,1.615854,2.073171,
16:27:27.034,-0.282959,-0.370605,0.983398,26.250000,-0.518293,-6.158537,
16:27:27.034,-0.282959,-0.370605,0.983398,18.109756,-3.841464,-2.560976,
16:27:27.054,-0.298584,-0.142822,0.914551,10.152439,-10.670732,6.920732,
16:27:27.073,-0.231934,-0.223877,0.984131,12.317074,-4.634147,9.054878,
16:27:27.073,-0.231934,-0.223877,0.984131,19.908537,-4.664634,11.158537,
16:27:27.121,-0.192383,-0.280273,1.048828,26.585367,-0.762195,-1.432927,
16:27:27.139,-0.191650,-0.081055,0.964600,17.469513,-1.341463,1.920732,
16:27:27.139,-0.191650,-0.081055,0.964600,12.896341,-0.579268,1.981707,
16:27:27.162,-0.176514,-0.052979,0.909912,4.786585,0.792683,-0.731707,
16:27:27.174,-0.180420,-0.043457,0.875000,0.701220,1.646342,-1.829268,
16:27:27.174,-0.180420,-0.043457,0.875000,0.274390,2.439024,-3.506098,
16:27:27.216,-0.180176,-0.061035,0.930176,-6.128049,1.554878,-1.524390,
16:27:27.227,-0.150635,-0.080566,0.939697,-15.701220,0.213415,3.445122,
16:27:27.227,-0.150635,-0.080566,0.939697,-16.798780,-1.036585,8.231708,
16:27:27.250,-0.171143,-0.144043,0.947754,-14.390244,-2.164634,10.853659,
16:27:27.261,-0.187988,-0.252441,1.122559,-16.585365,3.993902,2.713415,
16:27:27.261,-0.187988,-0.252441,1.122559,-19.481709,10.000000,2.682927,
16:27:27.292,-0.312012,-0.254395,1.064453,-10.670732,11.006098,2.225610,
16:27:27.315,-0.328613,-0.207275,0.972168,-15.243903,16.646341,-0.914634,
16:27:27.315,-0.328613,-0.207275,0.972168,-16.615854,16.859756,7.439024,
16:27:27.360,-0.267578,-0.294434,1.050049,-2.317073,20.091463,9.817074,
16:27:27.370,-0.258789,-0.295410,0.964111,3.414634,18.475611,3.079268,
16:27:27.388,-0.261719,-0.140381,0.882080,-0.030488,15.426829,4.695122,
16:27:27.401,-0.261475,-0.117188,0.870361,-7.347561,9.176829,7.621952,
16:27:27.410,-0.264648,-0.185059,0.880859,-7.103659,5.853659,5.579268,
16:27:27.432,-0.260010,-0.191895,0.937500,-7.652439,5.701220,4.329268,
16:27:27.444,-0.266113,-0.178955,0.964600,-11.250000,5.304878,4.359756,
16:27:27.454,-0.281250,-0.207275,0.973145,-8.109756,5.030488,2.743902,
16:27:27.480,-0.283691,-0.235107,0.941650,-4.542683,6.158537,1.067073,
16:27:27.490,-0.287842,-0.217041,0.937256,-1.585366,6.250000,0.304878,
16:27:27.515,-0.294922,-0.186768,0.933594,-3.841464,3.871951,-1.036585,
16:27:27.526,-0.289551,-0.170898,0.933350,-5.243903,1.981707,-1.920732,
16:27:27.553,-0.281982,-0.193848,0.925293,-3.018293,-0.487805,-3.810976,
16:27:27.561,-0.264160,-0.216309,0.922852,-0.762195,-0.853659,-5.975610,
16:27:27.570,-0.258057,-0.195312,0.951904,-2.256098,-0.579268,-5.762195,
16:27:27.593,-0.263916,-0.199707,0.960205,-4.756098,-0.518293,-4.878049,
16:27:27.601,-0.276855,-0.233154,0.960449,-4.207317,0.518293,-6.158537,
16:27:27.628,-0.290283,-0.233154,0.940430,-2.560976,-0.060976,-6.341464,
16:27:27.643,-0.281494,-0.237061,0.943359,-1.219512,0.152439,-6.646342,
16:27:27.664,-0.275879,-0.243164,0.941162,-1.250000,-0.731707,-6.097561,
16:27:27.672,-0.282715,-0.227539,0.932617,-1.219512,-1.554878,-5.243903,
16:27:27.695,-0.281738,-0.236572,0.930176,-0.853659,-2.225610,-4.969512,
16:27:27.704,-0.277344,-0.235352,0.930908,0.396341,-4.085366,-4.695122,
16:27:27.740,-0.274658,-0.237793,0.930176,1.036585,-3.689024,-4.085366,
16:27:27.750,-0.275879,-0.233154,0.941406,0.518293,-3.597561,-4.085366,
16:27:27.761,-0.271484,-0.219727,0.951660,-0.396341,-3.475610,-2.560976,
16:27:27.776,-0.265625,-0.223633,0.953369,-0.792683,-2.347561,-2.042683,
16:27:27.787,-0.266113,-0.218018,0.957520,-0.884146,-2.743902,-1.951220,
16:27:27.817,-0.253662,-0.233398,0.962891,0.731707,-0.792683,-2.500000,
16:27:27.828,-0.245361,-0.230957,0.958984,1.067073,-0.274390,-3.231707,
16:27:27.851,-0.247070,-0.207520,0.948975,-1.006098,-0.274390,-2.073171,
16:27:27.865,-0.255859,-0.213379,0.943604,-2.957317,0.304878,-2.256098,
16:27:27.865,-0.255859,-0.213379,0.943604,-3.719512,-0.060976,-3.048780,
16:27:27.899,-0.261475,-0.214111,0.955078,-3.414634,-0.823171,-1.798781,
16:27:27.942,-0.256592,-0.252930,0.947510,0.335366,0.365854,-2.378049,
16:27:27.942,-0.256592,-0.252930,0.947510,1.219512,0.457317,-2.073171,
16:27:27.961,-0.260254,-0.246338,0.956543,1.067073,1.615854,-1.554878,
16:27:27.967,-0.257324,-0.236084,0.950195,-0.975610,2.774390,-0.670732,
16:27:27.967,-0.257324,-0.236084,0.950195,-2.256098,2.743902,0.396341,
16:27:27.978,-0.265625,-0.223633,0.943359,-2.621951,0.731707,0.060976,
16:27:28.014,-0.258545,-0.236816,0.941162,-1.341463,0.640244,-1.737805,
16:27:28.014,-0.258545,-0.236816,0.941162,-0.914634,0.152439,-1.493902,
16:27:28.029,-0.256592,-0.230713,0.942871,-0.396341,1.097561,-1.554878,
16:27:28.014,-0.258545,-0.236816,0.941162,-0.914634,0.152439,-1.493902,
16:27:28.029,-0.256592,-0.230713,0.942871,-0.396341,1.097561,-1.554878,
16:27:28.014,-0.258545,-0.236816,0.941162,-0.914634,0.152439,-1.493902,