Time_stamp,Ax,Ay,Az,Gx,Gy,Gz,Label
15:14:33.921,-0.160889,-0.184326,0.957275,-1.829268,77.652443,-26.006098,1
15:14:34.011,-0.097900,-0.149658,1.031006,0.762195,2.439024,-1.920732,1
15:14:34.140,-0.009766,-0.183105,1.019775,7.865854,-2.012195,0.640244,1
15:14:34.274,-0.072754,-0.136475,0.995117,9.756098,0.457317,-16.371952,1
15:14:34.407,-0.037842,0.009277,0.973633,-20.152439,-1.219512,-1.615854,1
15:14:34.539,-0.165771,-0.130371,0.816406,1.158537,5.762195,-18.628050,1
15:14:34.654,-0.048828,-0.227783,1.107422,6.737805,3.048780,-7.317073,1
15:14:34.789,-0.148438,-0.139404,0.953125,2.073171,-7.042683,5.182927,1
15:14:34.921,-0.103516,-0.104248,0.953857,2.743902,1.798781,-0.670732,1
15:14:35.054,-0.075439,-0.120850,1.005615,3.506098,-4.847561,-3.384146,1
15:14:35.194,-0.043457,-0.088867,0.993652,-11.737805,-6.006098,17.347561,1
15:14:35.301,0.009277,-0.354492,1.148926,3.445122,-8.719512,-5.121951,1
15:14:35.436,0.050781,-0.193115,0.899170,2.164634,7.896342,-13.414635,1
15:14:35.574,-0.177979,-0.148682,0.908447,5.762195,-1.585366,-0.060976,1
15:14:35.708,-0.143555,-0.162842,1.029053,-0.670732,-1.463415,1.097561,1
15:14:35.840,-0.064453,-0.142334,0.983887,4.695122,-1.676829,-2.896342,1
15:14:35.972,-0.030518,-0.153076,0.961182,-7.957317,8.506098,5.609756,1
15:14:36.080,-0.106201,-0.136963,0.996094,2.225610,-7.713415,-6.310976,1
15:14:36.214,0.004883,-0.195312,0.948730,3.902439,9.969512,-1.646342,1
15:14:36.358,-0.031738,-0.177490,1.023193,-3.292683,6.981708,1.097561,1
15:14:36.522,-0.181396,-0.116455,1.021973,4.939024,-3.048780,-6.341464,1
15:14:36.629,-0.123047,-0.144287,0.980713,6.463415,-6.524390,-2.591464,1
15:14:36.746,-0.022461,-0.129639,0.955078,-10.274390,3.993902,12.042684,1
15:14:36.928,-0.016357,-0.279785,1.066406,-3.079268,-14.481708,-4.329268,1
15:14:37.013,-0.000732,-0.184570,0.831299,0.853659,13.323171,-0.731707,1
15:14:37.126,-0.014648,-0.227295,1.041748,1.402439,13.536586,1.676829,1
15:14:37.259,-0.194824,-0.113281,1.000000,8.871951,-5.457317,-1.280488,1
15:14:37.391,-0.206299,-0.125488,0.986816,5.274390,-6.128049,-2.987805,1
15:14:37.560,-0.076904,-0.163818,0.971924,5.365854,-8.384147,-8.353659,1
15:14:37.643,-0.009277,-0.144043,0.984375,-6.615854,1.890244,-2.743902,1
15:14:37.804,-0.027832,-0.208984,1.050781,1.951220,-15.487805,-12.652439,1
15:14:37.925,0.123779,-0.168701,1.025879,-1.250000,17.743902,-21.676830,1
15:14:38.047,-0.202393,-0.097656,0.941162,0.000000,-0.304878,-0.640244,1
15:14:38.185,-0.082764,-0.300293,0.974854,1.158537,-1.707317,12.682927,1
15:14:38.359,-0.075928,-0.153809,0.996094,-1.585366,-4.390244,5.884147,1
15:14:38.426,-0.028320,-0.137207,0.959717,3.475610,2.652439,4.512195,1
15:14:38.612,-0.115967,-0.222656,1.012695,4.664634,-16.737804,-13.993903,1
15:14:38.685,0.159668,-0.183838,0.965332,0.152439,14.146341,-14.542684,1
15:14:38.816,-0.133789,-0.144775,0.964355,1.219512,0.030488,-0.884146,1
15:14:38.969,-0.174072,-0.166748,1.001221,3.506098,0.609756,5.213415,1
15:14:39.107,-0.132812,-0.130371,0.991699,-0.274390,-4.634147,8.079268,1
15:14:39.215,-0.055176,-0.134033,0.951904,43.231709,24.603659,-5.060976,1
15:14:39.431,-0.045654,0.023193,0.984863,-16.006098,-19.420732,-8.689025,1
15:14:39.463,0.061523,-0.119629,0.995361,-8.810976,24.268293,-15.396342,1
15:14:39.596,-0.006836,-0.229248,1.016846,5.884147,0.609756,0.548781,1
15:14:39.769,-0.204834,-0.142578,0.954834,0.701220,2.865854,0.548781,1
15:14:39.862,-0.205078,-0.137695,1.064697,1.463415,-1.585366,6.859756,1
15:14:40.013,-0.148438,-0.122559,0.927002,24.573172,-19.756098,-7.073171,1
15:14:40.135,0.177246,-0.221191,0.883789,-9.908537,0.945122,-2.073171,1
15:14:40.245,-0.075439,-0.075195,0.988281,-8.353659,20.000000,-17.134148,1
15:14:40.428,0.074707,-0.101074,1.124512,10.304878,7.439024,-8.719512,1
15:14:40.517,-0.133301,-0.189209,0.934082,-6.707317,-5.121951,-8.719512,1
15:14:40.649,-0.221436,-0.129883,1.041748,-1.250000,7.012195,19.603659,1
15:14:40.832,-0.213867,-0.171387,0.949463,4.390244,-18.689024,2.073171,1
15:14:40.926,0.128418,-0.172852,0.973633,-9.268293,-2.682927,3.475610,1
15:14:41.039,-0.000977,-0.278320,1.011719,-8.567074,4.146341,-13.231708,1
15:14:41.190,0.316406,-0.266602,1.105469,8.384147,11.341464,-20.762196,1
15:14:41.303,-0.320312,-0.073242,0.942383,-3.963415,5.426829,-5.945122,1
15:14:41.444,-0.089844,-0.339355,1.049072,3.262195,-3.140244,15.396342,1
15:14:41.639,-0.130859,-0.195801,0.965332,7.560976,-12.987805,5.701220,1
15:14:41.700,0.064453,-0.183350,0.971924,34.512196,-3.993902,5.060976,1
15:14:41.811,0.009277,-0.364014,1.014648,-8.780488,-15.884147,-13.109756,1
15:14:41.956,0.117188,-0.070557,0.909180,-14.420732,9.573171,-39.695122,1
15:14:42.124,-0.147949,-0.030518,0.927734,-6.432927,1.951220,5.823171,1
15:14:42.209,-0.109619,-0.348389,0.986084,-5.335366,-4.481708,23.231709,1
15:14:42.341,-0.091309,-0.179688,0.986328,-22.347561,-14.573171,19.969513,1
15:14:42.539,0.020508,-0.064941,1.004639,3.658537,-5.548780,6.951220,1
15:14:42.604,-0.048340,-0.201172,0.971680,-7.073171,-8.079268,-7.987805,1
15:14:42.721,0.114746,-0.289795,1.040283,6.768293,0.030488,-17.743902,1
15:14:42.916,-0.104248,-0.282959,0.958984,5.792683,1.371951,7.134147,1
15:14:43.000,-0.105469,-0.224854,0.942627,1.067073,-6.585366,11.615854,1
15:14:43.135,-0.025391,-0.203857,0.998047,2.713415,-1.006098,4.268293,1
15:14:43.312,0.009766,-0.287109,1.006592,-5.365854,-11.646341,-15.701220,1
15:14:43.394,0.238037,-0.340820,0.928467,11.402439,24.756098,-3.262195,1
15:14:43.501,-0.038330,-0.232422,0.908936,20.487804,1.798781,-2.774390,1
15:14:43.684,-0.338623,-0.049561,1.027344,3.810976,5.975610,4.237805,1
15:14:43.766,-0.206299,-0.213379,0.954590,-0.914634,-17.134148,-1.707317,1
15:14:43.899,0.009033,-0.187500,0.987549,-17.256098,-2.560976,15.731708,1
15:14:44.107,0.187256,-0.099854,1.197021,-29.939026,-8.048780,-1.676829,1
15:14:44.171,-0.011963,-0.095947,0.942871,0.640244,27.012196,-9.512196,1
15:14:44.280,-0.078369,-0.252930,0.960449,0.518293,-4.054878,-0.274390,1
15:14:44.460,-0.218262,-0.139648,1.000977,0.365854,3.170732,1.798781,1
15:14:44.544,-0.153564,-0.188721,0.972168,7.103659,-5.274390,-2.896342,1
15:14:44.676,-0.030029,-0.194580,0.937988,5.823171,9.725610,3.506098,1
15:14:44.887,-0.156982,-0.051270,0.944092,-4.176829,-10.304878,0.213415,1
15:14:44.946,0.094727,-0.268311,0.802734,3.689024,23.963415,-1.463415,1
15:14:45.079,-0.030762,-0.215332,0.995850,-8.963415,-13.140244,5.609756,1
15:14:45.279,-0.341064,-0.101807,0.986084,7.652439,10.091464,-3.262195,1
15:14:45.344,-0.151123,-0.217773,0.933838,10.518293,-16.189024,-7.957317,1
15:14:45.476,0.026123,-0.272949,0.946777,-25.060976,-4.756098,8.902439,1
15:14:45.680,0.010254,-0.285889,1.067139,-30.121952,-6.310976,-5.457317,1
15:14:45.731,0.030762,-0.171387,0.821045,12.713415,20.670732,-13.536586,1
15:14:45.839,-0.147705,-0.246094,0.935303,7.896342,0.030488,0.518293,1
15:14:46.060,-0.169922,-0.174805,0.992188,0.091463,-0.182927,8.475610,1
15:14:46.115,-0.124023,-0.201416,0.961670,12.713415,-12.042684,-5.792683,1
15:14:46.236,0.079102,-0.168213,0.887451,-14.115854,-2.408537,-0.121951,1
15:14:46.466,-0.002441,-0.196777,1.008545,-2.591464,27.987806,-4.664634,1
15:14:46.511,0.037842,-0.222168,1.114746,0.762195,3.628049,-27.835367,1
15:14:46.630,-0.217285,-0.216797,0.891602,4.756098,4.237805,4.817073,1
15:14:46.829,-0.330811,-0.212158,0.991455,1.341463,-3.414634,18.597561,1
15:14:46.888,-0.183350,-0.202637,0.919678,6.554878,-20.792683,-0.457317,1
15:14:47.021,0.203125,-0.160889,0.973389,-7.225610,-12.774390,-0.792683,1
15:14:47.221,0.007080,-0.247314,1.019043,4.207317,26.189026,5.365854,1
15:14:47.302,0.128174,-0.316650,1.200195,-0.609756,9.024390,-2.103659,1
15:14:47.406,-0.220459,-0.175049,0.857422,1.493902,7.560976,-1.158537,1
15:14:47.632,-0.146484,-0.302246,1.137207,4.451220,-4.573171,10.030488,1
15:14:47.676,-0.111084,-0.145264,0.883789,13.841464,-15.182927,-15.182927,1
15:14:47.808,0.098389,-0.254639,0.909424,-3.109756,-10.213415,2.195122,1
15:14:47.989,0.052246,-0.155518,1.055176,4.085366,29.939026,-15.182927,1
15:14:48.067,-0.025635,-0.117676,1.101807,3.841464,2.042683,-30.975611,1
15:14:48.200,-0.202881,-0.201172,0.920898,-2.317073,3.719512,11.707317,1
15:14:48.383,-0.179443,-0.255371,1.005615,0.548781,-7.682927,18.353659,1
15:14:48.453,-0.077637,-0.191895,0.925781,12.652439,0.701220,19.237804,1
15:14:48.585,0.214844,-0.184326,1.229980,-15.243903,-10.609756,-3.109756,1
15:14:48.796,0.021240,-0.023682,0.969482,-16.371952,19.908537,-22.317074,1
15:14:48.844,-0.113037,-0.129150,0.997314,4.359756,0.762195,-13.902439,1
15:14:48.975,-0.093506,-0.376709,1.005859,2.195122,1.798781,14.634147,1
15:14:49.183,-0.102051,-0.215820,0.962402,2.713415,-10.091464,13.536586,1
15:14:49.265,0.034668,-0.173828,0.947998,1.463415,-5.396342,2.926829,1
15:14:49.376,0.016357,-0.233887,1.016846,-3.963415,-1.310976,-8.109756,1
15:14:49.544,0.021973,-0.117676,0.948730,-13.170732,11.951220,-32.469513,1
15:14:49.633,-0.134277,-0.258057,0.965088,-3.445122,-0.853659,11.890244,1
15:14:49.766,-0.087402,-0.318359,0.956055,-4.817073,-2.134146,16.493902,1
15:14:49.948,-0.042725,-0.166992,0.976562,8.567074,-9.054878,10.670732,1
15:14:50.034,0.087646,-0.055420,1.033447,-11.250000,-5.853659,-1.280488,1
15:14:50.142,-0.010254,-0.057617,0.976562,0.762195,28.536587,-3.079268,1
15:14:50.327,0.071289,-0.364990,1.026611,5.426829,9.451220,-4.512195,1
15:14:50.402,-0.229248,-0.139648,0.895752,2.073171,0.243902,-2.195122,1
15:14:50.554,-0.206299,-0.296143,1.101562,7.286585,-4.481708,1.036585,1
15:14:50.727,-0.105713,-0.177490,0.895020,0.213415,-16.493902,-8.810976,1
15:14:50.809,0.133545,-0.203369,0.953125,-4.878049,-11.676829,1.371951,1
15:14:50.941,-0.099854,-0.167969,0.969482,8.902439,13.841464,-5.487805,1
15:14:51.154,0.247559,-0.250488,0.997314,2.774390,12.286586,-3.018293,1
15:14:51.208,-0.160400,-0.205322,0.950684,6.585366,-3.323171,-0.091463,1
15:14:51.340,-0.165771,-0.145752,1.010498,0.457317,5.091464,1.707317,1
15:14:51.530,-0.154541,-0.215576,0.986572,7.469512,-11.250000,-7.682927,1
15:14:51.587,-0.038330,-0.192871,0.927979,-5.457317,2.103659,11.310976,1
15:14:51.720,0.175293,-0.134766,1.224609,-13.292684,-9.847561,4.695122,1
15:14:51.894,0.108887,-0.212891,0.864014,1.890244,21.707317,-2.865854,1
15:14:51.975,-0.168945,-0.205078,0.882568,7.713415,0.365854,-10.701220,1
15:14:52.118,-0.113281,-0.214844,1.080811,2.774390,-2.774390,-0.365854,1
15:14:52.286,-0.073730,-0.215088,0.891357,-15.000000,-3.963415,29.573172,1
15:14:52.379,0.216309,-0.531006,1.142822,10.274390,-2.560976,-1.585366,1
15:14:52.488,-0.003906,-0.098145,1.015381,-28.445122,22.225611,-4.054878,1
15:14:52.708,-0.022461,-0.221436,1.054443,4.756098,-2.286585,-7.560976,1
15:14:52.750,-0.218018,-0.223389,0.966797,1.371951,5.091464,9.329268,1
15:14:52.883,-0.151367,-0.210449,0.992676,13.536586,-11.890244,-0.365854,1
15:14:53.028,0.026855,-0.137451,0.923340,-7.896342,3.658537,-0.853659,1
15:14:53.198,-0.101074,-0.194824,0.940186,-27.347561,-6.219512,-11.676829,1
15:14:53.260,0.123779,-0.238770,0.816162,5.792683,12.987805,-26.554878,1
15:14:53.460,-0.221924,-0.223633,0.906494,4.878049,5.823171,11.219513,1
15:14:53.536,-0.132080,-0.310791,1.004883,7.103659,-8.780488,13.231708,1
15:14:53.694,-0.024658,-0.185547,0.911621,1.432927,4.939024,3.353659,1
15:14:53.828,-0.166992,-0.041992,0.970459,-22.987806,-8.780488,-3.109756,1
15:14:53.968,0.076904,-0.113037,1.030518,2.804878,31.432928,-38.658539,1
15:14:54.059,-0.074219,-0.130859,0.990967,5.335366,-1.859756,1.890244,1
15:14:54.202,-0.055420,-0.421143,1.061523,-1.189024,1.158537,22.652439,1
15:14:54.339,-0.090088,-0.247803,0.922119,19.969513,-14.908537,3.536585,1
15:14:54.457,0.041748,-0.205078,0.935303,5.121951,-5.152439,6.310976,1
15:14:54.639,-0.012451,-0.161133,1.033691,-30.426830,-7.774390,-5.670732,1
15:14:54.722,0.086426,-0.173584,0.894043,-3.445122,14.847561,-27.469513,1
15:14:54.864,-0.086182,-0.264160,0.931641,5.365854,-0.121951,5.304878,1
15:14:55.037,-0.120850,-0.354736,1.066895,4.603659,-0.243902,19.725611,1
15:14:55.109,-0.089844,-0.223145,0.925049,16.097561,-12.865854,4.298780,1
15:14:55.223,0.075439,-0.156006,0.977783,-15.731708,-1.402439,-0.304878,1
15:14:55.418,-0.027832,-0.103760,1.031006,-11.798780,17.987804,-11.829268,1
15:14:55.487,0.037354,-0.267090,1.050537,0.823171,4.115854,-9.237805,1
15:14:55.620,-0.198242,-0.311768,0.947021,0.396341,1.829268,6.158537,1
15:14:55.827,-0.153809,-0.281494,0.996582,4.664634,-4.237805,10.274390,1
15:14:55.868,-0.044434,-0.193604,0.951904,7.682927,1.463415,5.304878,1
15:14:56.011,0.174072,-0.208984,1.258789,-15.000000,-6.890244,0.121951,1
15:14:56.203,0.006348,-0.106445,0.928223,-11.676829,25.030489,-0.548781,1
15:14:56.276,-0.010498,-0.423584,1.040771,9.664635,-0.304878,-0.701220,1
15:14:56.408,-0.266357,-0.041504,0.952393,10.853659,5.518293,-0.914634,1
15:14:56.600,-0.107666,-0.204102,0.962402,5.365854,-16.646341,-4.725610,1
15:14:56.667,0.010986,-0.273193,0.885010,7.256098,-10.518293,-2.652439,1
15:14:56.780,0.094971,-0.388672,1.052979,3.201220,-5.731708,-3.597561,1
15:14:56.967,0.092773,-0.275146,0.847168,0.000000,13.810976,2.500000,1
15:14:57.045,-0.180664,-0.195801,0.919189,7.378049,4.298780,-5.243903,1
15:14:57.189,-0.168213,-0.148682,1.111328,1.798781,-1.463415,-4.390244,1
15:14:57.371,-0.087646,-0.129395,0.907715,6.371952,-18.475611,-6.707317,1
15:14:57.466,0.110840,-0.146484,0.902100,7.804878,-1.798781,5.914634,1
15:14:57.582,0.043701,-0.221924,1.238525,-25.609756,3.658537,-4.603659,1
15:14:57.757,0.277100,-0.129639,0.989990,-0.914634,22.073172,-5.091464,1
15:14:57.839,-0.098633,-0.281738,0.989014,15.762196,-8.871951,-10.792684,1
15:14:57.996,-0.228271,-0.041748,0.964111,-6.676829,9.725610,12.103659,1
15:14:58.158,-0.219727,-0.209473,0.961670,6.951220,-19.542683,-8.536586,1
15:14:58.223,0.077637,-0.173340,0.895264,-23.262196,1.920732,5.579268,1
15:14:58.361,-0.152832,-0.031982,0.914307,-14.420732,-5.396342,-4.847561,1
15:14:58.525,0.020752,-0.256836,1.007568,-10.945122,26.371952,-9.420732,1
15:14:58.606,0.041016,-0.284180,1.034424,3.810976,7.621952,-18.658537,1
15:14:58.737,-0.118652,-0.285400,0.916748,-2.530488,5.243903,-8.841464,1
15:14:58.939,-0.116455,-0.260010,0.953369,-4.939024,6.463415,16.920732,1
15:14:59.006,-0.240234,-0.385986,1.024658,3.810976,-20.579269,15.030488,1
15:14:59.138,-0.078125,-0.196289,0.889893,27.195122,21.798780,-2.926829,1
15:14:59.294,0.011719,-0.020020,1.019043,-17.469513,-10.548780,5.274390,1
15:14:59.404,0.022461,-0.016113,0.885010,-14.817074,27.621952,-23.567074,1
15:14:59.527,-0.038086,-0.295898,0.977051,1.402439,-5.609756,-2.896342,1
15:14:59.719,0.002686,-0.331543,1.051758,5.579268,14.176829,-12.317074,1
15:14:59.792,-0.156738,-0.164795,0.937500,9.054878,-4.603659,-11.890244,1
15:14:59.900,-0.140137,-0.276611,0.947754,-3.109756,-4.024390,22.469513,1
15:15:00.080,-0.170166,-0.242676,0.928223,17.408537,-30.182928,5.304878,1
15:15:00.180,0.130371,-0.198730,0.851074,9.817074,-10.975610,3.993902,1
15:15:00.309,-0.129395,-0.215332,0.974121,5.853659,20.518293,-24.024391,1
15:15:00.456,0.126709,-0.108643,1.075439,-2.896342,2.256098,-22.530489,1
15:15:00.612,-0.071777,-0.371094,1.002930,-0.091463,1.128049,11.859756,1
15:15:00.698,-0.107910,-0.261963,0.924072,-1.615854,-3.689024,12.957317,1
15:15:00.853,-0.017822,-0.179688,0.952393,3.445122,11.646341,2.317073,1
15:15:00.966,-0.258301,-0.007812,0.785645,-7.012195,-5.121951,0.213415,1
15:15:01.099,0.006592,-0.135986,0.977295,-16.615854,26.463415,-24.969513,1
15:15:01.287,-0.028076,-0.244385,1.013184,6.585366,4.146341,-2.835366,1
15:15:01.363,-0.117920,-0.430664,0.961182,2.530488,-4.390244,11.768293,1
15:15:01.470,-0.090088,-0.241943,0.921631,7.652439,-8.353659,3.109756,1
15:15:01.678,-0.003418,-0.277344,0.918213,19.207317,-3.567073,3.658537,1
15:15:01.737,-0.066650,-0.292236,1.004883,-10.304878,-10.853659,-4.237805,1
15:15:01.869,0.180176,-0.227051,0.860596,1.524390,6.524390,-3.567073,1
15:15:02.052,-0.135742,-0.240479,0.968262,0.731707,7.530488,1.310976,1
15:15:02.136,-0.224365,-0.181152,1.002441,4.756098,-0.304878,-2.560976,1
15:15:02.268,-0.132568,-0.222412,0.970215,11.615854,-14.237805,6.158537,1
15:15:02.456,0.251953,-0.479492,1.055420,4.603659,-0.579268,6.128049,1
15:15:02.515,-0.092285,-0.123535,1.052246,-4.512195,14.908537,9.085366,1
15:15:02.647,0.043457,-0.291748,0.937012,13.231708,1.737805,-5.701220,1
15:15:02.860,-0.225342,-0.141113,0.995361,2.134146,2.621951,-5.731708,1
15:15:02.917,-0.127197,-0.187256,0.974121,12.560976,-11.371951,-7.347561,1
15:15:03.048,0.007324,-0.179443,0.866699,-5.701220,-1.615854,-8.292683,1
15:15:03.234,-0.025879,-0.313232,1.164795,-16.463415,1.341463,-3.597561,1
15:15:03.288,0.224365,-0.247803,0.836182,6.189024,19.268293,-0.213415,1
15:15:03.441,-0.139893,-0.225830,0.943359,6.554878,-0.731707,-6.768293,1
15:15:03.647,-0.355957,-0.085938,0.934814,-8.201220,5.457317,6.250000,1
15:15:03.702,-0.172119,-0.245850,0.955566,11.067074,-15.060976,-5.030488,1
15:15:03.825,0.020996,-0.159424,0.903320,-0.182927,1.006098,6.920732,1
15:15:04.003,-0.038574,-0.307617,0.912354,-16.707317,1.463415,-8.140244,1
15:15:04.096,0.202148,-0.264893,0.961914,-0.670732,13.048780,-4.725610,1
15:15:04.206,-0.088867,-0.234375,0.916504,-3.109756,2.652439,-8.384147,1
15:15:04.374,-0.127441,-0.318604,1.030518,3.780488,1.920732,12.347561,1
15:15:04.523,-0.152344,-0.233887,0.962402,27.957317,-18.902439,-4.969512,1
15:15:04.620,0.119141,-0.261230,0.923828,-1.067073,-15.030488,2.896342,1
15:15:04.754,0.115967,-0.208252,1.032227,-18.719513,9.542684,-18.170732,1
15:15:04.937,0.083008,-0.192139,1.106689,4.786585,11.432927,-20.518293,1
15:15:04.992,-0.116211,-0.351074,0.944824,6.493903,-0.182927,16.341463,1
15:15:05.131,-0.102051,-0.277100,0.937256,14.786586,-16.280489,10.426829,1
15:15:05.275,0.009033,-0.202393,0.882568,7.500000,-7.743903,7.500000,1
15:15:05.378,0.073730,-0.303711,1.068604,-15.000000,6.676829,-10.121951,1
15:15:05.573,0.107910,-0.250244,1.127930,5.426829,10.579268,-29.542685,1
15:15:05.650,-0.096680,-0.407715,0.970947,1.829268,-0.335366,14.908537,1
15:15:05.800,-0.114014,-0.346436,0.907227,2.530488,-9.237805,20.731709,1
15:15:05.929,-0.030029,-0.180176,0.922852,-5.457317,-3.109756,-3.658537,1
15:15:06.070,-0.069092,-0.335205,0.872559,-35.945122,-12.560976,-10.213415,1
15:15:06.177,0.182617,-0.186768,0.871338,9.573171,18.475611,-27.560976,1
15:15:06.325,-0.153564,-0.222900,0.846680,0.945122,2.835366,2.957317,1
15:15:06.445,-0.181396,-0.390381,1.028076,4.573171,-0.487805,19.024391,1
15:15:06.553,-0.125488,-0.214355,0.931641,23.932928,-25.823172,-4.634147,1
15:15:06.761,0.153564,-0.096191,0.804688,12.164635,-3.871951,-1.280488,1
15:15:06.818,0.031250,-0.165527,1.039307,-9.847561,22.560976,-9.634147,1
15:15:06.958,0.174805,-0.219727,1.083984,5.579268,4.481708,1.097561,1
15:15:07.147,-0.167969,-0.281982,0.888672,-2.134146,-1.341463,-2.621951,1
15:15:07.205,-0.164551,-0.250000,1.040527,1.524390,-2.682927,10.426829,1
15:15:07.344,-0.095215,-0.232666,0.944824,21.737806,-30.670732,-12.317074,1
15:15:07.537,0.361328,0.010254,1.091309,6.250000,-4.878049,6.981708,1
15:15:07.603,-0.061768,-0.011475,0.981934,-22.560976,20.884148,-1.341463,1
15:15:07.763,0.120117,-0.316650,1.080566,11.646341,4.451220,-9.878049,1
15:15:07.870,-0.053711,-0.195068,0.977051,3.231707,1.798781,0.213415,1
15:15:08.004,-0.287598,-0.146484,0.982178,-1.189024,-0.884146,7.103659,1
15:15:08.131,-0.126221,-0.187500,0.897461,24.024391,-22.103659,2.134146,1
15:15:08.273,0.102051,-0.192627,0.718994,8.262196,-9.725610,2.865854,1
15:15:08.410,0.141357,-0.380859,1.158447,-22.560976,17.500000,5.152439,1
15:15:08.510,0.215820,-0.328613,1.044434,-2.500000,14.603659,5.548780,1
15:15:08.663,-0.246094,-0.098145,0.992676,-1.189024,0.762195,-5.304878,1
15:15:08.828,-0.094727,-0.213867,1.011475,3.932927,-4.146341,-2.256098,1
15:15:08.915,-0.084229,-0.170166,0.951660,-13.780488,-18.414635,17.865854,1
15:15:09.085,0.552002,-0.441895,1.684570,-35.060978,-9.146341,1.859756,1
15:15:09.168,0.062744,-0.042725,0.878662,8.689025,16.280489,-2.713415,1
15:15:09.281,0.046143,-0.120117,1.004639,9.054878,9.359756,4.451220,1
15:15:09.471,-0.233154,-0.001465,0.921631,0.701220,5.731708,-2.195122,1
15:15:09.546,-0.148682,-0.165527,1.055908,0.000000,0.609756,-5.365854,1
15:15:09.701,-0.000732,-0.179932,0.958740,4.573171,-24.908537,-11.432927,1
15:15:09.818,0.255127,-0.014648,1.095459,-8.902439,-4.512195,1.493902,1
15:15:09.930,0.091064,-0.188965,0.978271,-5.365854,22.987806,-1.128049,1
15:15:10.107,0.039795,-0.341064,1.019775,5.914634,12.256098,-8.750000,1
15:15:10.195,-0.101318,-0.115723,0.990723,-6.432927,-0.030488,3.993902,1
15:15:10.344,-0.315674,-0.130615,1.056396,-0.609756,-0.701220,-1.432927,1
15:15:10.518,-0.177490,-0.145508,0.942383,6.189024,-21.890244,-3.262195,1
15:15:10.602,0.144043,-0.246582,0.810059,-13.384147,-8.140244,-4.268293,1
15:15:10.750,0.017822,-0.137939,1.115479,-19.481709,15.335366,-8.384147,1
15:15:10.881,0.391602,-0.306885,1.130615,-2.103659,11.036586,-5.457317,1
15:15:10.987,-0.182373,-0.199951,0.923828,4.878049,2.500000,-6.707317,1
15:15:11.121,-0.206787,-0.248291,1.073975,4.939024,-1.036585,11.219513,1
15:15:11.313,-0.174316,-0.158447,0.905029,14.115854,-23.048780,3.993902,1
15:15:11.398,0.217285,-0.330322,0.870605,-2.164634,-11.768293,0.945122,1
15:15:11.511,0.041260,-0.233398,0.973633,-17.408537,20.091463,-5.731708,1
15:15:11.687,0.284424,-0.247803,1.274902,2.134146,2.621951,-20.030489,1
15:15:11.775,-0.187256,-0.189941,0.882324,3.932927,5.640244,8.323171,1
15:15:11.933,-0.193115,-0.279785,1.068115,7.439024,-1.402439,12.256098,1
15:15:12.040,-0.080322,-0.199463,0.898193,4.969512,-18.597561,-6.310976,1
15:15:12.158,0.527588,-0.054199,1.511963,9.725610,-3.048780,4.817073,1
15:15:12.347,0.013184,0.012939,1.027588,-26.920732,25.823172,-7.317073,1
15:15:12.407,0.083740,-0.288086,1.080322,4.542683,4.603659,-22.195122,1
15:15:12.540,-0.181885,-0.282227,0.973633,-13.414635,3.871951,4.939024,1
15:15:12.725,-0.159424,-0.315186,0.964844,-2.774390,-8.414635,18.384148,1
15:15:12.805,-0.045654,-0.354736,0.906250,-5.823171,11.951220,13.902439,1
15:15:12.956,0.365234,-0.339600,1.378662,42.195122,-7.073171,-0.914634,1
15:15:13.136,-0.003418,0.062012,1.021484,-28.353659,21.890244,-17.652439,1
15:15:13.192,0.087402,-0.153076,1.050781,-14.725610,-0.060976,-23.475611,1
15:15:13.331,-0.114258,-0.474121,1.000244,5.884147,2.134146,13.902439,1
15:15:13.521,-0.140869,-0.391602,0.961670,6.219512,-13.323171,25.731709,1
15:15:13.579,0.036133,-0.239014,0.900146,16.036585,7.957317,8.262196,1
15:15:13.716,-0.193848,-0.042480,0.778076,-30.243904,-8.079268,-3.963415,1
15:15:13.867,0.123291,-0.070801,0.976074,-16.615854,28.323172,-43.719513,1
15:15:14.037,-0.085449,-0.194824,0.915527,-2.042683,0.731707,6.676829,1
15:15:14.123,-0.148193,-0.439453,0.976562,3.780488,-5.152439,22.713415,1
15:15:14.230,-0.043213,-0.249023,0.891846,59.268295,-3.048780,9.695122,1
15:15:14.417,0.240479,-0.397705,1.250977,-10.914635,-1.280488,-6.798780,1
15:15:14.504,0.022217,0.156006,1.023193,-31.006098,9.085366,-15.579268,1
15:15:14.658,0.205566,-0.138184,1.045654,-3.506098,2.347561,-17.073172,1
15:15:14.768,-0.087891,-0.260254,1.144775,1.768293,12.591464,-0.213415,1
15:15:14.908,-0.191650,-0.224854,0.946533,5.731708,-9.603659,21.402439,1
15:15:15.032,-0.109375,-0.218994,0.892334,11.646341,-10.975610,8.353659,1
15:15:15.174,0.400879,0.063477,1.519287,-23.079269,-8.018292,-5.945122,1
15:15:15.284,0.109131,0.034424,1.003662,-15.975610,18.628050,-13.201220,1
15:15:15.421,0.030273,-0.280029,0.991699,8.292683,5.609756,-11.890244,1
15:15:15.571,-0.093262,-0.274902,1.026367,3.353659,7.591464,6.371952,1
15:15:15.696,-0.156982,-0.235107,0.967773,4.695122,-7.743903,12.804878,1
15:15:15.831,-0.045898,-0.246094,0.919189,36.158539,-3.414634,8.658537,1
15:15:15.932,0.238281,0.009277,1.185547,-16.951220,-7.560976,-0.975610,1
15:15:16.071,0.063721,0.121338,1.059082,-14.390244,21.402439,-11.737805,1
15:15:16.216,0.192139,-0.271484,1.119141,7.896342,5.792683,-15.091464,1
15:15:16.321,-0.175293,-0.190674,0.941895,-2.500000,2.469512,3.963415,1
15:15:16.455,-0.229248,-0.253174,1.053711,4.634147,-4.390244,11.371951,1
15:15:16.637,-0.079834,-0.145508,0.929443,-1.036585,-16.890244,8.506098,1
15:15:16.721,0.137207,-0.236816,0.907471,11.859756,-9.268293,1.920732,1
15:15:16.868,0.073730,-0.176025,1.000000,-6.615854,14.054878,-4.420732,1
15:15:17.016,0.189697,-0.190918,1.038818,-0.060976,12.835366,0.304878,1
15:15:17.113,-0.127197,-0.154053,0.985107,-1.890244,-2.408537,2.317073,1
15:15:17.257,-0.161865,-0.148682,1.006348,1.219512,4.115854,-6.006098,1
15:15:17.353,-0.092773,-0.169678,0.972168,12.012196,-24.695122,-10.518293,1
15:15:17.494,0.108643,-0.196045,0.806396,-13.536586,-12.225610,-2.987805,1
15:15:17.690,0.153076,-0.409912,1.061279,-1.829268,15.243903,-8.932927,1
15:15:17.750,0.326172,-0.388184,0.967041,-0.701220,15.152439,-6.067073,1
15:15:17.884,-0.037354,-0.175049,0.982910,3.963415,9.176829,-14.146341,1
15:15:18.067,-0.188232,-0.134766,1.045410,1.920732,-1.920732,6.615854,1
15:15:18.158,-0.191406,-0.288818,0.948242,63.597561,-22.469513,2.103659,1
15:15:18.267,0.065674,-0.117432,0.852783,2.926829,-10.914635,-2.103659,1
15:15:18.477,0.095459,-0.129639,1.027100,-27.134148,24.817074,-8.567074,1
15:15:18.531,0.368408,-0.314453,1.221680,0.182927,10.609756,-20.091463,1
15:15:18.663,-0.253174,-0.219238,0.912354,-0.091463,6.798780,11.646341,1
15:15:18.849,-0.173584,-0.319336,1.007080,8.048780,-11.036586,15.121952,1
15:15:18.932,-0.030029,-0.128662,0.963623,-26.920732,-22.713415,34.573170,1
15:15:19.072,0.400879,0.017822,1.584229,-31.250000,-9.024390,-4.908537,1
15:15:19.226,0.187744,0.016357,0.892578,-0.213415,26.067074,-27.012196,1
15:15:19.315,-0.001953,-0.189941,1.016113,2.652439,-1.006098,-10.762196,1
15:15:19.473,-0.257324,-0.193848,0.972656,0.182927,4.451220,16.432928,1
15:15:19.623,-0.160645,-0.203369,0.995361,0.121951,-16.585365,20.243902,1
15:15:19.718,0.017578,-0.132080,0.865479,6.371952,12.256098,1.493902,1
15:15:19.828,-0.119873,0.132568,0.990967,-26.341465,6.158537,-9.786586,1
15:15:20.038,0.256348,-0.220703,0.986328,3.597561,22.865854,-23.871952,1
15:15:20.102,-0.069336,-0.258057,0.958252,6.036585,-2.164634,-7.560976,1
15:15:20.242,-0.209229,-0.274170,0.971191,0.701220,-4.664634,25.000000,1
15:15:20.418,-0.145508,-0.235107,0.941895,-11.554878,-14.207317,16.402439,1
15:15:20.499,0.083496,-0.149414,0.876221,-8.170732,-1.676829,-10.792684,1
15:15:20.610,-0.018799,-0.353760,0.764893,-26.280489,-2.103659,-5.000000,1
15:15:20.824,0.215332,-0.284912,0.979736,-1.006098,16.402439,-41.554878,1
15:15:20.891,-0.190674,-0.196533,0.899658,1.128049,6.371952,3.810976,1
15:15:21.007,-0.177490,-0.488281,0.950684,0.152439,-10.884147,24.817074,1
15:15:21.190,-0.048340,-0.209961,0.900391,-2.439024,-18.079269,10.640244,1
15:15:21.282,0.080078,-0.230225,0.870361,17.865854,-9.207317,6.646342,1
15:15:21.390,0.150391,-0.198975,1.148438,-33.536587,0.853659,-4.359756,1
15:15:21.605,0.177002,-0.224609,0.979004,5.457317,7.835366,-32.134148,1
15:15:21.649,-0.101318,-0.387939,0.958252,7.317073,2.500000,7.469512,1
15:15:21.781,-0.147461,-0.359131,0.945068,6.097561,-8.475610,23.932928,1
15:15:21.966,-0.040771,-0.242920,0.896240,26.128050,12.073171,4.725610,1
15:15:22.046,0.058350,-0.045654,1.107666,0.335366,-6.036585,-1.250000,1
15:15:22.178,0.011475,-0.073486,1.020020,-10.792684,18.262196,0.396341,1
15:15:22.358,0.168701,-0.357910,1.095459,3.810976,9.908537,-12.896341,1
15:15:22.448,-0.138672,-0.225342,0.958008,5.518293,8.048780,-3.506098,1
15:15:22.574,-0.226807,-0.312744,1.004639,7.591464,-11.067074,9.573171,1
15:15:22.756,-0.077393,-0.159180,0.878174,2.073171,-12.134147,5.792683,1
15:15:22.827,0.489258,-0.320312,1.482666,1.219512,-8.780488,6.006098,1
15:15:22.959,0.060059,0.029785,1.023438,-19.451220,21.951220,8.231708,1
15:15:23.159,0.017334,-0.382568,1.019287,-0.121951,1.432927,-0.274390,1
15:15:23.222,-0.218506,-0.046875,0.960205,1.432927,3.262195,0.243902,1
15:15:23.361,-0.101807,-0.193359,0.988525,0.457317,-12.804878,-0.914634,1
15:15:23.546,0.031982,-0.234375,0.865967,5.365854,-0.945122,-7.987805,1
15:15:23.622,-0.041748,-0.146973,0.934570,-14.573171,-10.060976,-3.384146,1
15:15:23.761,0.205078,-0.316895,0.871338,-7.896342,24.115854,5.304878,1
15:15:23.967,-0.070801,-0.187256,0.927979,0.487805,0.975610,-4.847561,1
15:15:23.997,-0.134521,-0.222412,1.145996,6.097561,9.359756,-1.128049,1
15:15:24.130,-0.139893,-0.158447,0.946045,10.518293,-18.993902,-3.658537,1
15:15:24.303,0.053467,-0.223877,0.797363,11.463415,-7.042683,-7.012195,1
15:15:24.395,-0.000732,-0.196533,0.952881,-8.414635,-2.713415,-4.695122,1
15:15:24.545,0.289551,-0.225586,0.992920,1.493902,9.878049,-17.103659,1
15:15:24.737,-0.092529,-0.190430,1.103027,0.975610,8.780488,1.036585,1
15:15:24.792,-0.160889,-0.163574,0.976074,-2.378049,-0.274390,5.884147,1
15:15:24.907,-0.140625,-0.203125,0.984375,7.865854,-13.201220,4.085366,1
15:15:25.052,0.074463,-0.238770,0.893066,23.932928,-2.530488,3.109756,1
15:15:25.226,-0.046875,-0.266846,1.025391,-12.743903,-4.329268,-11.432927,1
15:15:25.311,0.202637,-0.000732,0.992676,-25.518293,15.579268,-20.670732,1
15:15:25.474,-0.015625,-0.207031,0.992676,5.670732,0.000000,-13.475610,1
15:15:25.587,-0.127930,-0.312012,1.046387,1.615854,1.585366,18.292683,1
15:15:25.701,-0.118408,-0.222656,0.994141,4.268293,-7.865854,16.890244,1
15:15:25.851,0.014404,-0.126709,0.939209,10.579268,0.030488,-0.548781,1
15:15:25.952,-0.020508,-0.036865,1.066650,-25.487806,-9.451220,-5.518293,1
15:15:26.092,0.170166,-0.098389,0.817383,2.530488,25.396341,-21.798780,1
15:15:26.275,0.044189,-0.199219,0.986572,1.768293,9.451220,-2.987805,1
15:15:26.378,-0.119873,-0.269775,1.032715,4.481708,2.652439,11.067074,1
15:15:26.484,-0.255127,-0.174805,0.949707,-0.396341,0.152439,7.103659,1
15:15:26.664,-0.089111,-0.162354,0.989502,23.780489,-11.189025,-2.682927,1
15:15:26.749,0.110840,-0.195801,0.889404,6.859756,-12.042684,-5.000000,1
15:15:26.863,0.081299,-0.159668,1.112793,-23.231709,4.054878,-2.256098,1
15:15:27.066,0.191895,-0.244141,0.803223,4.420732,20.579269,-6.097561,1
15:15:27.148,-0.070557,-0.214111,0.997314,11.310976,-4.451220,-9.268293,1
15:15:27.258,-0.252686,-0.009277,0.905029,-4.146341,9.359756,9.329268,1
15:15:27.443,-0.206543,-0.236328,1.036621,6.798780,-10.396341,3.414634,1
15:15:27.529,-0.002197,-0.128662,0.910645,17.621952,-24.847561,-8.963415,1
15:15:27.657,0.264893,-0.170898,0.928955,2.347561,-4.298780,3.780488,1
15:15:27.819,0.038330,-0.030762,0.988281,-4.786585,28.018293,5.426829,1
15:15:27.929,-0.003418,-0.357666,1.085938,5.487805,3.231707,-0.823171,1
15:15:28.051,-0.121094,-0.073486,0.911133,-0.335366,1.402439,-3.018293,1
15:15:28.211,-0.145996,-0.121582,1.083252,1.219512,-0.304878,-1.890244,1
15:15:28.306,-0.074463,-0.136475,0.925293,7.408537,-14.115854,-2.439024,1
15:15:28.438,0.066406,-0.192871,0.962158,-14.024390,-11.554878,-1.493902,1
15:15:28.622,0.066650,-0.185059,0.982910,-15.121952,-2.530488,-0.182927,1
15:15:28.707,0.098145,-0.210449,0.874023,5.030488,20.030489,-3.750000,1
15:15:28.824,-0.087402,-0.159912,1.004639,-0.426829,-1.981707,-6.250000,1
15:15:29.001,-0.130615,-0.142090,1.019775,1.585366,0.396341,0.762195,1
15:15:29.069,-0.115967,-0.156738,0.927002,-1.036585,-9.420732,0.640244,1
15:15:29.203,0.052490,-0.145996,0.922119,-23.262196,-5.975610,-6.463415,1
15:15:29.399,0.021484,-0.167725,0.951172,-26.493902,-3.780488,-4.085366,1
15:15:29.485,0.065674,-0.207520,0.932861,-3.993902,26.951220,-14.146341,1
15:15:29.630,-0.018555,-0.255859,0.965088,3.780488,-5.975610,-3.932927,1
15:15:29.798,-0.088623,-0.304199,1.025391,0.823171,2.713415,6.859756,1
15:15:29.864,-0.109131,-0.213867,0.971436,4.481708,-3.628049,7.804878,1
15:15:30.007,0.038330,-0.189697,0.945312,17.804878,11.250000,-6.646342,1
15:15:30.189,-0.046143,-0.022217,0.965088,-14.847561,-2.439024,-5.701220,1
15:15:30.267,0.142578,-0.173828,0.913574,-1.737805,16.219513,-30.304878,1
15:15:30.399,-0.096191,-0.114990,0.940674,4.390244,4.542683,2.164634,1
15:15:30.585,-0.094482,-0.348633,0.970703,-0.792683,-4.237805,15.670732,1
15:15:30.639,-0.092773,-0.209961,0.926025,-0.701220,-12.500000,8.048780,1
15:15:30.772,0.034668,-0.180176,0.969482,-1.006098,-2.103659,-6.402439,1
15:15:30.981,0.009033,-0.119873,1.059082,-30.914635,8.567074,-8.810976,1
15:15:31.041,0.176758,-0.184082,1.078125,6.615854,8.323171,-43.018295,1
15:15:31.177,-0.104980,-0.284424,0.973389,5.945122,0.731707,4.451220,1
15:15:31.350,-0.111816,-0.292236,0.931152,2.469512,-5.396342,20.060976,1
15:15:31.413,-0.041748,-0.253906,0.972412,2.682927,-8.018292,15.182927,1
15:15:31.546,0.016113,-0.146729,0.930908,12.743903,-9.420732,-5.121951,1
15:15:31.757,-0.008789,-0.002441,1.030518,-22.957317,9.237805,-9.329268,1
15:15:31.808,0.181152,-0.146973,1.030029,11.280488,7.347561,-17.560976,1
15:15:31.941,-0.122070,-0.251465,0.921143,-0.701220,4.420732,-2.652439,1
15:15:32.124,-0.128418,-0.334473,1.022949,0.213415,0.914634,21.737806,1
15:15:32.209,-0.112793,-0.205322,0.947754,8.475610,-7.042683,6.981708,1
15:15:32.337,0.075195,-0.127441,0.905762,-7.774390,-2.012195,-8.231708,1
15:15:32.539,-0.037842,-0.252441,1.018066,0.243902,16.768293,-16.981709,1
15:15:32.602,0.166992,-0.181641,1.057373,-2.469512,10.487805,-17.256098,1
15:15:32.728,-0.134277,-0.296875,0.934082,1.829268,1.981707,8.048780,1
15:15:32.916,-0.167480,-0.258545,0.972168,-0.060976,-2.865854,14.329268,1
15:15:32.999,-0.053711,-0.195801,0.972656,4.817073,-9.512196,0.518293,1
15:15:33.107,0.056396,-0.155518,0.917480,-2.743902,-8.810976,0.487805,1
15:15:33.308,0.065674,-0.166748,1.032715,-17.256098,21.219513,-9.329268,1
15:15:33.378,0.067627,-0.311035,1.022461,3.201220,1.402439,-2.164634,1
15:15:33.511,-0.099854,-0.228760,0.957275,-0.335366,-0.365854,1.798781,1
15:15:33.690,-0.150146,-0.197510,1.008301,1.798781,-1.219512,3.780488,1
15:15:33.782,-0.093506,-0.176514,0.962891,37.469513,-13.506098,-10.731708,1
15:15:33.889,0.033936,-0.128418,0.893311,1.920732,-7.743903,1.310976,1
15:15:34.112,0.145264,-0.155273,1.134033,-11.280488,14.786586,2.012195,1
15:15:34.158,0.148438,-0.218506,1.159180,6.280488,2.987805,2.439024,1
15:15:34.289,-0.094482,-0.127441,0.922852,-3.475610,4.969512,-2.896342,1
15:15:34.476,-0.123779,-0.173096,1.140137,5.091464,1.920732,0.274390,1
15:15:34.555,-0.096924,-0.115479,0.953857,3.689024,-21.158537,-5.182927,1
15:15:34.662,0.065918,-0.181152,0.806885,-8.292683,-2.073171,-2.378049,1
15:15:34.880,-0.022217,-0.145508,0.898193,-25.823172,30.000000,-6.524390,1
15:15:34.933,0.187256,-0.528809,1.035400,9.542684,9.939025,-14.359756,1
15:15:35.064,-0.185547,-0.255127,0.932861,2.195122,0.884146,3.353659,1
15:15:35.215,-0.183350,-0.281494,1.063232,5.548780,-1.646342,12.652439,1
15:15:35.357,-0.086426,-0.197754,0.936035,12.652439,-29.969513,-11.707317,1
15:15:35.442,0.094238,-0.222656,0.775879,4.664634,-9.573171,4.878049,1
15:15:35.612,0.070068,-0.104004,1.019531,-8.597561,27.103659,-19.603659,1
15:15:35.766,0.025879,-0.251465,1.053223,13.932927,5.000000,-16.554878,1
15:15:35.847,-0.204834,-0.208984,0.891846,1.676829,4.237805,5.792683,1
15:15:35.998,-0.148193,-0.348145,1.056641,5.579268,-1.615854,18.567074,1
15:15:36.160,-0.094238,-0.176758,0.931152,9.603659,-16.829269,7.347561,1
15:15:36.228,0.021484,-0.108643,0.891602,0.274390,-8.689025,-11.554878,1
15:15:36.388,0.089111,-0.194336,1.112549,-8.109756,24.908537,-28.414635,1
15:15:36.540,0.113281,-0.219238,1.086914,2.865854,4.695122,-22.804878,1
15:15:36.639,-0.137695,-0.387939,0.967285,0.030488,5.213415,11.646341,1
15:15:36.786,-0.126221,-0.259033,0.970215,-0.640244,-7.865854,21.189024,1
15:15:36.958,-0.019287,-0.202637,0.927979,36.768295,-2.469512,15.762196,1
15:15:37.038,0.280273,-0.270508,1.282471,-1.280488,-3.932927,2.469512,1
15:15:37.180,-0.053711,0.069092,1.020996,-5.823171,17.073172,-8.231708,1
15:15:37.305,0.076172,-0.194580,1.049561,-0.304878,4.695122,-17.560976,1
15:15:37.416,-0.032227,-0.312744,0.994873,5.762195,1.585366,3.109756,1
15:15:37.549,-0.135254,-0.197998,0.987061,2.865854,-0.030488,9.420732,1
15:15:37.694,-0.093750,-0.186035,0.967041,16.036585,-25.731709,2.652439,1
15:15:37.865,0.029541,-0.187500,0.808594,6.189024,-9.054878,6.615854,1
15:15:37.947,0.053467,-0.095459,1.062012,-14.420732,9.603659,-8.963415,1
15:15:38.058,0.225830,-0.215088,1.092285,3.597561,12.500000,-15.335366,1
15:15:38.239,-0.018066,-0.173828,0.964355,-1.554878,5.000000,-0.548781,1
15:15:38.323,-0.212891,-0.154297,1.012939,2.774390,-1.219512,9.176829,1
15:15:38.456,-0.177002,-0.176758,0.953613,3.628049,-18.628050,2.926829,1
15:15:38.637,0.047607,-0.056885,0.851807,9.634147,-8.506098,4.969512,1
15:15:38.724,0.113525,-0.271484,1.092285,-26.128050,0.731707,-4.939024,1
15:15:38.874,0.221191,-0.244629,0.888916,1.250000,8.475610,-30.975611,1
15:15:38.984,-0.080566,-0.240479,0.957275,-1.981707,6.890244,6.493903,1
15:15:39.136,-0.200195,-0.293213,0.979736,-1.189024,-0.792683,19.237804,1
15:15:39.251,-0.076416,-0.181641,0.955566,-1.432927,-16.189024,10.365854,1
15:15:39.388,0.052979,-0.183838,0.812012,-16.036585,-11.341464,-5.274390,1
15:15:39.559,0.144287,-0.136719,1.161377,-14.603659,18.780489,-2.530488,1
15:15:39.648,0.156250,-0.373535,1.153809,9.786586,8.689025,3.628049,1
15:15:39.768,-0.214844,-0.170654,0.918457,6.920732,-1.341463,6.219512,1
15:15:39.888,-0.122314,-0.161377,0.985840,3.719512,3.353659,-3.018293,1
15:15:40.028,-0.062012,-0.152832,0.991699,0.945122,-21.951220,-4.024390,1
15:15:40.189,0.022949,-0.204834,0.762939,2.347561,-3.963415,0.853659,1
15:15:40.278,0.057617,-0.078369,1.069824,-4.146341,8.871951,2.591464,1
15:15:40.433,0.175537,-0.182617,1.037598,0.884146,7.865854,4.390244,1
15:15:40.530,-0.101318,-0.150879,0.948730,-3.810976,5.030488,-4.878049,1
15:15:40.692,-0.135254,-0.161133,1.044678,1.310976,-0.701220,-4.908537,1
15:15:40.836,-0.071289,-0.166992,0.935059,-2.378049,-11.006098,-2.073171,1
15:15:40.929,0.212891,-0.165283,1.165283,6.524390,0.975610,2.713415,1
15:15:41.070,-0.005127,-0.099121,1.034668,-0.121951,8.506098,-1.524390,1
15:15:41.247,0.228516,-0.133789,1.061279,-8.079268,11.676829,-3.323171,1
15:15:41.308,-0.062500,-0.245850,0.964600,8.719512,4.908537,-7.256098,1
15:15:41.476,-0.241943,-0.164795,1.056396,-0.823171,-11.463415,0.487805,1
15:15:41.617,-0.096191,-0.212158,0.875488,24.603659,-12.621951,-3.780488,1
15:15:41.734,0.220215,-0.151367,1.104736,4.024390,-6.067073,0.579268,1
15:15:41.856,0.045898,-0.172607,1.027100,-6.554878,3.201220,-0.365854,1
15:15:42.031,0.236084,-0.175293,0.982178,-6.585366,17.591463,-6.554878,1
15:15:42.089,-0.043945,-0.244141,0.984375,4.115854,-1.128049,-5.365854,1
15:15:42.262,-0.333984,-0.064453,1.027832,2.896342,14.085366,2.042683,1
15:15:42.375,-0.223389,-0.223877,0.925537,7.682927,-15.152439,5.457317,1
15:15:42.534,0.036133,-0.125488,0.898193,3.323171,2.652439,-7.804878,1
15:15:42.629,0.229980,-0.196533,1.279053,-4.481708,-7.987805,1.493902,1
15:15:42.776,0.027100,-0.142578,0.834717,-9.817074,25.579269,-20.579269,1
15:15:42.900,0.036377,-0.167725,1.037109,3.140244,2.987805,-8.993902,1
15:15:43.014,-0.240234,-0.236572,0.986572,4.420732,5.091464,6.280488,1
15:15:43.161,-0.205322,-0.229736,1.018555,5.975610,-10.274390,13.658537,1
15:15:43.298,-0.049316,-0.213379,0.885010,2.835366,-1.920732,11.371951,1
15:15:43.461,0.230469,0.029541,1.237549,3.323171,2.012195,-2.621951,1
15:15:43.549,-0.069092,-0.018555,1.019775,-13.140244,19.359756,-8.414635,1
15:15:43.688,0.111084,-0.268555,1.064697,1.036585,-3.231707,-15.609756,1
15:15:43.849,-0.120605,-0.286621,0.980957,-0.213415,9.847561,6.585366,1
15:15:43.929,-0.206787,-0.261475,1.041992,5.365854,-3.048780,10.060976,1
15:15:44.062,-0.060791,-0.219482,0.903320,5.762195,-12.439025,10.823171,1
15:15:44.219,0.277588,-0.069580,1.265381,-9.481708,-4.603659,0.762195,1
15:15:44.319,0.058838,-0.043945,1.000977,-14.817074,29.359756,-40.853661,1
15:15:44.475,0.012207,-0.150635,1.027344,8.597561,4.024390,-9.786586,1
15:15:44.589,-0.106445,-0.471191,0.984863,2.987805,-1.890244,20.792683,1
15:15:44.699,-0.090820,-0.286377,0.949951,1.402439,-8.323171,17.378050,1
15:15:44.872,0.017822,-0.158447,0.947021,17.439024,-10.945122,-1.646342,1
15:15:44.966,-0.037354,-0.221924,0.869141,-17.774391,-2.012195,-4.725610,1
15:15:45.108,0.040039,-0.049805,1.003418,-14.878049,29.451220,-17.926830,1
15:15:45.286,0.083984,-0.219482,1.166748,2.439024,3.353659,-24.207317,1
15:15:45.374,-0.110840,-0.415039,0.978516,0.426829,-2.896342,10.884147,1
15:15:45.523,-0.117676,-0.328857,0.886719,-3.932927,-11.920732,25.365854,1
15:15:45.641,-0.018066,-0.268799,0.927246,55.640244,9.024390,2.225610,1
15:15:45.781,-0.103760,0.129639,1.091064,-10.640244,-5.274390,0.762195,1
15:15:45.891,0.016602,0.069580,1.010742,-21.036587,19.817074,-7.042683,1
15:15:46.039,0.146973,-0.239502,1.139404,7.439024,2.347561,-22.987806,1
15:15:46.151,-0.188965,-0.247070,0.920898,1.219512,7.865854,11.768293,1
15:15:46.290,-0.168457,-0.249512,0.999023,1.097561,-5.609756,20.731709,1
15:15:46.460,-0.078369,-0.198975,0.913818,39.786587,-20.152439,-13.597561,1
15:15:46.524,0.193604,0.164551,1.140869,13.628049,-11.036586,6.798780,1
15:15:46.660,0.047363,-0.049561,1.037354,-20.853659,30.335367,-15.762196,1
15:15:46.849,0.052734,-0.256836,0.999756,0.274390,3.170732,-19.359756,1
15:15:46.928,-0.080566,-0.287598,0.974121,4.054878,3.414634,1.463415,1
15:15:47.060,-0.144775,-0.183105,0.980225,1.829268,1.402439,11.737805,1
15:15:47.216,-0.121582,-0.227051,1.010010,7.347561,-15.304878,13.658537,1
15:15:47.331,-0.019287,-0.136230,0.823730,4.359756,-4.420732,3.628049,1
15:15:47.470,0.069336,-0.079102,1.082275,-25.274391,-2.530488,-10.000000,1
15:15:47.573,0.217285,-0.220703,0.861084,-3.506098,17.256098,-16.646341,1
15:15:47.714,-0.054443,-0.146484,0.993408,4.878049,3.414634,0.335366,1
15:15:47.884,-0.216064,-0.136719,1.022705,-1.341463,4.695122,3.597561,1
15:15:47.952,-0.194092,-0.157715,0.963135,3.567073,-19.024391,5.426829,1
15:15:48.146,0.072021,-0.186035,0.932129,-11.951220,10.762196,6.189024,1
15:15:48.254,-0.067871,-0.197754,1.000488,-11.067074,-6.707317,-7.621952,1
15:15:48.357,0.226074,-0.275879,0.760498,-5.304878,23.993902,-8.658537,1
15:15:48.489,-0.078857,-0.266357,0.989746,3.445122,7.164634,-4.146341,1
15:15:48.685,-0.222656,-0.145996,1.018311,2.073171,2.225610,3.201220,1
15:15:48.737,-0.126709,-0.193115,0.952393,9.908537,-11.219513,3.628049,1
15:15:48.876,-0.007812,-0.227295,0.938721,7.164634,5.945122,-2.073171,1
15:15:49.064,-0.074219,-0.063965,0.890625,-21.250000,-0.670732,-6.707317,1
15:15:49.146,0.095703,-0.263916,0.919678,8.628049,24.634148,4.847561,1
15:15:49.278,0.000488,-0.211914,1.019775,10.274390,1.768293,-0.609756,1
15:15:49.459,-0.290039,0.012939,0.906250,5.884147,8.658537,-5.030488,1
15:15:49.519,-0.180176,-0.135742,1.032471,0.945122,-8.323171,2.012195,1
15:15:49.679,-0.023682,-0.205566,0.908203,-1.829268,-27.713415,-3.018293,1
15:15:49.787,0.083740,-0.203613,0.863770,2.621951,-11.920732,2.804878,1
15:15:49.934,0.103516,-0.144531,1.131348,-15.396342,-0.670732,8.932927,1
15:15:50.037,0.117432,-0.134521,0.835449,-3.597561,16.920732,-1.798781,1
15:15:50.179,-0.071777,-0.235107,1.037109,3.506098,3.597561,0.365854,1
15:15:50.358,-0.036377,-0.228516,1.013916,1.402439,2.682927,1.158537,1
15:15:50.450,-0.003418,-0.174316,1.003418,-2.347561,4.725610,1.676829,1
15:15:50.565,-0.085205,-0.207031,0.967041,-1.676829,2.256098,1.036585,1
15:15:50.747,-0.051514,-0.221924,1.007812,6.097561,3.353659,-1.981707,1
15:15:50.823,-0.037354,-0.199951,0.985352,-2.500000,-0.121951,-1.067073,1
15:16:21.293,-0.133057,-0.139893,0.935547,-11.859756,79.054878,-41.250000,2
15:16:21.382,-0.126953,-0.105469,0.962158,-6.036585,-3.079268,-1.036585,2
15:16:21.510,-0.214355,-0.140869,0.936279,-4.878049,-5.091464,10.579268,2
15:16:21.641,-0.086914,-0.076416,1.029053,3.445122,3.963415,-7.530488,2
15:16:21.774,-0.082520,0.002441,1.031494,9.634147,4.115854,-10.853659,2
15:16:21.880,-0.138916,-0.073730,1.001709,0.640244,0.518293,-5.701220,2
15:16:22.049,-0.120850,-0.029053,0.963379,-4.573171,-10.762196,23.323172,2
15:16:22.159,-0.190918,-0.006104,1.045654,-8.689025,-20.365854,0.213415,2
15:16:22.294,-0.005615,-0.251221,1.007812,5.701220,5.945122,5.701220,2
15:16:22.433,-0.166016,0.017578,1.020508,3.810976,7.469512,-31.737806,2
15:16:22.566,-0.065186,-0.089600,0.973389,4.786585,-2.042683,-8.048780,2
15:16:22.682,-0.175293,-0.237061,0.956055,-1.371951,-2.164634,17.225611,2
15:16:22.814,-0.105957,-0.093262,1.010254,-23.079269,1.920732,10.579268,2
15:16:22.948,-0.007568,-0.157959,1.110107,-29.786587,-20.945122,-8.567074,2
15:16:23.065,-0.002686,-0.010010,0.860596,2.286585,28.384148,-28.658537,2
15:16:23.197,-0.145508,-0.182617,0.909912,8.750000,-9.207317,-7.439024,2
15:16:23.330,-0.227295,-0.207764,0.957275,0.091463,2.987805,10.000000,2
15:16:23.462,-0.160889,-0.178711,0.972412,6.920732,-18.231709,-2.134146,2
15:16:23.594,0.067139,-0.154785,0.985352,45.000000,-3.780488,5.823171,2
15:16:23.729,-0.084229,-0.022949,1.009033,0.000000,24.054878,6.250000,2
15:16:23.846,0.024902,-0.088623,1.081055,-3.414634,-4.817073,3.109756,2
15:16:23.986,-0.204102,-0.027588,0.956055,1.615854,5.914634,-4.756098,2
15:16:24.124,-0.174805,-0.068115,1.042969,2.225610,-3.750000,-3.658537,2
15:16:24.295,-0.073486,-0.082275,0.949219,11.067074,4.176829,-2.469512,2
15:16:24.382,-0.074707,-0.054199,1.054443,-28.932928,-14.847561,2.195122,2
15:16:24.498,0.075684,-0.245605,0.973877,12.713415,19.847561,14.725610,2
15:16:24.636,-0.177246,-0.024902,0.898193,0.487805,-6.707317,-11.371951,2
15:16:24.784,-0.118896,-0.080566,1.050049,6.128049,2.256098,-19.512196,2
15:16:24.944,-0.101318,-0.072510,0.979492,-8.201220,-14.451220,-4.115854,2
15:16:25.032,-0.044434,-0.124023,0.893066,-8.414635,-1.493902,-1.128049,2
15:16:25.170,-0.117676,-0.102539,0.954834,-37.103661,23.048780,25.731709,2
15:16:25.339,0.042480,-0.454346,1.046631,10.274390,-0.731707,12.195122,2
15:16:25.403,-0.287354,0.003662,0.910645,4.268293,6.646342,-7.164634,2
15:16:25.544,-0.187012,-0.108154,1.004639,7.500000,-7.804878,-15.152439,2
15:16:25.728,-0.040283,-0.152832,0.939941,-4.115854,-3.231707,1.432927,2
15:16:25.800,-0.083252,-0.022217,1.040771,-6.128049,7.042683,6.707317,2
15:16:25.937,0.223633,-0.244873,1.174805,7.317073,8.384147,3.689024,2
15:16:26.118,-0.201172,-0.127930,0.846191,9.054878,-5.121951,-8.871951,2
15:16:26.189,-0.263184,-0.120361,1.035156,7.743903,-0.243902,-6.128049,2
15:16:26.321,-0.161621,-0.120850,0.985840,16.219513,-22.164635,-6.554878,2
15:16:26.459,0.024414,-0.202148,0.866699,-6.615854,-10.396341,0.487805,2
15:16:26.592,0.003174,-0.043945,0.963867,-2.804878,38.902439,-12.286586,2
15:16:26.775,-0.025879,-0.193115,0.952637,8.689025,-8.689025,-4.329268,2
15:16:26.866,-0.284912,-0.157227,0.976807,6.493903,12.378049,6.036585,2
15:16:26.980,-0.252930,-0.118896,0.976074,4.725610,-6.707317,4.481708,2
15:16:27.158,-0.005127,-0.169678,1.014648,28.658537,-13.658537,1.128049,2
15:16:27.244,0.372803,-0.532959,1.468018,-28.567074,-21.158537,-10.975610,2
15:16:27.360,0.339844,-0.169922,1.023193,14.695123,22.225611,1.585366,2
15:16:27.549,-0.170410,-0.095459,0.910645,-1.036585,-6.067073,0.823171,2
15:16:27.629,-0.294678,0.021484,1.047119,2.804878,6.737805,3.079268,2
15:16:27.739,-0.212891,-0.068848,0.967285,2.073171,-9.390244,-6.219512,2
15:16:27.953,0.060303,-0.109863,0.967041,38.140244,17.408537,-15.457317,2
15:16:28.004,-0.052246,0.009277,1.076416,-18.414635,-4.756098,1.341463,2
15:16:28.137,0.180664,-0.394043,1.056152,17.926830,2.378049,4.451220,2
15:16:28.318,-0.191406,0.059082,0.863770,1.189024,6.585366,-16.097561,2
15:16:28.405,0.046143,0.020264,1.083740,3.109756,-4.237805,-15.182927,2
15:16:28.524,-0.104004,-0.161865,0.959229,-16.067074,-17.195122,17.682928,2
15:16:28.728,-0.138672,-0.031006,1.196777,-25.548780,-14.695123,0.030488,2
15:16:28.789,0.083252,-0.090088,0.946045,9.969512,29.786587,-32.286587,2
15:16:28.928,-0.156494,-0.079590,0.925049,-2.103659,-0.884146,7.347561,2
15:16:29.081,-0.101318,-0.262939,1.006592,2.134146,-2.957317,12.286586,2
15:16:29.186,-0.058350,-0.125732,0.962402,5.426829,-2.164634,-4.969512,2
15:16:29.322,0.073730,-0.079346,1.194336,-20.030489,-5.274390,3.140244,2
15:16:29.484,0.156982,-0.222168,1.048828,14.969513,12.286586,15.548780,2
15:16:29.610,-0.133545,-0.160645,0.951904,10.945122,-3.810976,1.676829,2
15:16:29.710,-0.149658,0.036133,1.083496,8.384147,5.091464,-16.036585,2
15:16:29.856,-0.180664,-0.062012,0.976562,3.140244,-11.920732,-15.884147,2
15:16:30.033,-0.063721,-0.110107,0.898682,-20.579269,-7.957317,2.286585,2
15:16:30.084,-0.047363,-0.249756,0.958740,-2.835366,-6.097561,-3.018293,2
15:16:30.243,0.143799,-0.143311,1.093506,3.262195,13.750000,-8.719512,2
15:16:30.390,-0.218750,-0.149658,0.928711,6.890244,1.463415,-1.676829,2
15:16:30.488,-0.128418,-0.130859,1.078857,12.408537,-5.701220,-3.536585,2
15:16:30.633,-0.087646,-0.088135,0.913330,10.426829,2.774390,-0.701220,2
15:16:30.806,0.049316,-0.143066,1.275146,-20.426830,-5.182927,-6.951220,2
15:16:30.881,0.194580,-0.008301,0.958008,8.170732,12.256098,-29.725611,2
15:16:31.025,-0.085449,-0.034180,0.920410,-2.408537,2.804878,4.725610,2
15:16:31.177,-0.226318,-0.150146,1.102051,5.640244,3.323171,9.817074,2
15:16:31.263,-0.136719,-0.072021,0.965820,10.975610,-11.067074,6.280488,2
15:16:31.406,-0.036621,-0.099365,0.884033,-4.939024,-5.609756,-6.006098,2
15:16:31.579,-0.059326,-0.055908,0.916260,-30.365854,15.487805,7.469512,2
15:16:31.660,0.025146,-0.336670,1.037354,25.000000,15.243903,3.292683,2
15:16:31.816,-0.256104,0.041748,0.959229,6.920732,3.963415,-20.426830,2
15:16:31.922,-0.145264,-0.042236,1.073975,11.097561,-5.701220,-19.359756,2
15:16:32.075,-0.080566,-0.091797,0.915283,10.426829,-5.426829,13.170732,2
15:16:32.178,0.042725,-0.249512,1.495361,-43.932926,-14.481708,7.317073,2
15:16:32.319,0.111816,-0.082031,0.857422,-12.865854,29.725611,-3.871951,2
15:16:32.496,-0.173340,-0.203857,0.966064,8.140244,-8.292683,-1.981707,2
15:16:32.583,-0.187988,-0.154541,1.129639,8.841464,2.682927,-1.097561,2
15:16:32.725,-0.226562,-0.084717,0.956543,6.554878,-16.250000,-9.268293,2
15:16:32.857,-0.061035,-0.051514,0.859619,3.810976,-0.030488,14.237805,2
15:16:32.964,-0.271240,-0.149170,0.866699,-25.304878,19.939024,3.048780,2
15:16:33.126,0.181152,-0.304199,1.062988,13.597561,7.865854,-13.079268,2
15:16:33.242,-0.202393,-0.167969,0.999512,3.506098,0.914634,-7.103659,2
15:16:33.418,-0.229736,-0.124512,0.988770,0.060976,-0.853659,9.329268,2
15:16:33.498,-0.132324,-0.159424,0.987549,15.853659,-5.914634,3.384146,2
15:16:33.605,-0.011475,-0.100098,0.933350,21.402439,0.091463,15.000000,2
15:16:33.787,-0.154785,-0.022461,0.905762,-27.865854,-11.493903,-13.475610,2
15:16:33.875,0.374512,-0.343262,1.151367,5.152439,18.536587,-0.579268,2
15:16:34.026,-0.082031,-0.155762,0.955078,1.951220,-3.079268,-1.219512,2
15:16:34.177,-0.322510,-0.004150,1.000000,5.182927,12.103659,1.280488,2
15:16:34.268,-0.214844,-0.142822,1.013428,15.670732,-14.115854,-8.109756,2
15:16:34.401,0.023193,-0.228271,0.882812,2.286585,7.012195,8.871951,2
15:16:34.581,-0.170410,0.056885,0.792480,1.859756,8.628049,-1.890244,2
15:16:34.650,0.114014,-0.169189,1.166992,3.140244,-0.426829,16.036585,2
15:16:34.795,-0.211182,0.006104,0.843750,1.676829,6.250000,-20.884148,2
15:16:34.967,0.032471,-0.036377,1.105713,2.225610,-5.030488,-16.554878,2
15:16:35.050,-0.145264,-0.176758,0.869141,-13.597561,-19.603659,12.957317,2
15:16:35.160,-0.058105,-0.094238,1.166016,-26.646341,-5.579268,-5.457317,2
15:16:35.365,0.093262,-0.278076,1.005371,15.914635,12.256098,-42.134148,2
15:16:35.427,-0.157715,-0.088623,0.765625,-4.878049,-2.865854,12.469513,2
15:16:35.586,-0.152344,-0.293701,0.988281,3.658537,-3.658537,14.268293,2
15:16:35.759,-0.042725,-0.128418,0.926270,-10.914635,1.128049,15.670732,2
15:16:35.827,-0.162598,0.117676,0.936523,-9.207317,-6.006098,-1.341463,2
15:16:35.960,0.089355,-0.300781,0.890381,11.219513,19.085367,12.713415,2
15:16:36.141,-0.140869,-0.215820,0.908691,-0.396341,-5.609756,-1.463415,2
15:16:36.210,-0.162109,0.012451,1.080811,7.804878,2.103659,-19.176830,2
15:16:36.346,-0.160889,-0.078125,0.952637,-33.048782,-7.987805,24.725611,2
15:16:36.499,0.141846,-0.527832,1.162354,-27.134148,0.762195,0.579268,2
15:16:36.611,-0.051758,-0.044434,0.912109,4.146341,19.115854,-3.902439,2
15:16:36.720,-0.076660,-0.142090,1.013916,12.347561,-7.835366,-5.426829,2
15:16:36.926,-0.241211,-0.051270,0.983398,3.780488,6.676829,1.646342,2
15:16:36.989,-0.147217,-0.119141,0.961182,15.000000,-17.926830,1.158537,2
15:16:37.144,-0.031494,-0.243652,0.906738,1.951220,-2.896342,-10.426829,2
15:16:37.307,0.100830,-0.054199,1.052734,13.506098,28.109756,-18.140244,2
15:16:37.413,0.062744,-0.165527,1.059082,-1.280488,1.829268,-17.225611,2
15:16:37.547,-0.232178,-0.228027,1.013916,5.365854,6.890244,8.384147,2
15:16:37.674,-0.192139,-0.071045,0.998535,1.646342,-8.262196,6.798780,2
15:16:37.801,-0.033447,-0.084717,0.958740,6.371952,4.451220,1.310976,2
15:16:37.926,0.125732,-0.237793,1.171631,-27.957317,-11.371951,-5.304878,2
15:16:38.038,0.041016,-0.032715,0.883301,-7.957317,15.762196,-28.231709,2
15:16:38.183,-0.113770,-0.101562,0.974854,0.579268,1.310976,0.640244,2
15:16:38.322,-0.129883,-0.287354,1.003906,-0.792683,-1.890244,16.890244,2
15:16:38.447,-0.059814,-0.134033,0.974365,0.884146,2.621951,14.237805,2
15:16:38.586,0.111816,-0.272705,1.254883,-3.536585,-9.054878,-0.243902,2
15:16:38.681,0.047607,0.003174,0.947754,-14.939025,18.231709,-9.847561,2
15:16:38.820,-0.038086,-0.293945,0.975830,3.414634,5.060976,0.975610,2
15:16:38.998,-0.095703,-0.166260,0.980713,2.103659,-4.451220,-3.628049,2
15:16:39.079,-0.262207,-0.080078,1.040527,6.768293,2.225610,2.530488,2
15:16:39.211,-0.185059,-0.150391,0.868896,19.573172,-20.304878,-6.280488,2
15:16:39.409,0.110840,-0.265137,0.911377,-5.792683,-7.652439,4.451220,2
15:16:39.474,-0.028320,-0.234619,0.927979,-13.109756,24.756098,11.493903,2
15:16:39.607,-0.052002,-0.379639,1.010498,8.719512,0.060976,5.884147,2
15:16:39.796,-0.265625,-0.035156,0.943115,9.725610,8.048780,-12.804878,2
15:16:39.855,-0.140381,-0.126953,1.061523,28.109756,-11.615854,-22.103659,2
15:16:39.988,0.010254,-0.225586,0.897461,2.012195,-3.689024,-7.774390,2
15:16:40.202,-0.111572,-0.239746,0.888916,-26.707317,24.603659,-0.243902,2
15:16:40.253,0.124512,-0.295898,1.104492,15.457317,-0.975610,-10.975610,2
15:16:40.382,-0.266357,-0.200928,0.959961,5.365854,5.518293,0.579268,2
15:16:40.567,-0.220703,-0.103271,1.034668,4.939024,-2.225610,10.701220,2
15:16:40.642,-0.127930,-0.134521,0.941895,20.579269,-23.414635,2.164634,2
15:16:40.774,0.093750,-0.267334,0.879883,-14.146341,-6.432927,3.536585,2
15:16:40.958,0.011230,-0.056641,0.949951,22.408537,33.810978,3.536585,2
15:16:41.053,-0.004883,-0.183105,1.010498,31.676830,5.701220,-4.268293,2
15:16:41.191,-0.389160,0.158447,0.965820,4.237805,11.615854,-5.701220,2
15:16:41.355,-0.212891,-0.110107,1.044922,6.036585,-3.414634,-3.048780,2
15:16:41.432,-0.125488,-0.068604,0.905762,-73.658539,-10.640244,43.567074,2
15:16:41.583,0.335449,-0.037109,1.524170,-17.439024,-6.128049,2.347561,2
15:16:41.745,-0.028809,-0.041016,0.825684,4.451220,14.481708,20.304878,2
15:16:41.799,-0.201172,-0.142090,0.953857,1.280488,7.073171,-19.481709,2
15:16:41.971,-0.040039,0.057129,1.026611,2.286585,-0.182927,-21.128050,2
15:16:42.103,-0.101318,-0.258301,0.922363,-37.500000,-6.768293,13.475610,2
15:16:42.249,0.178223,-0.343262,1.397461,-6.951220,-3.262195,0.853659,2
15:16:42.350,-0.028076,-0.007080,0.970215,-12.103659,21.128050,-7.652439,2
15:16:42.507,-0.013916,-0.484863,1.046631,12.256098,6.829268,-15.670732,2
15:16:42.591,-0.118652,-0.349365,0.969727,-0.640244,-0.426829,12.774390,2
15:16:42.738,-0.101318,-0.275391,0.934082,10.091464,-15.060976,6.798780,2
15:16:42.888,0.039307,-0.329346,0.843994,11.981708,-11.097561,2.713415,2
15:16:42.991,-0.015869,-0.264893,1.116943,-11.067074,8.810976,-6.128049,2
15:16:43.169,0.161621,-0.336670,1.095703,4.054878,8.597561,-16.432928,2
15:16:43.260,-0.160156,-0.223877,0.939697,2.469512,5.579268,5.335366,2
15:16:43.371,-0.187500,-0.316895,1.057861,7.103659,-3.445122,9.329268,2
15:16:43.576,-0.080811,-0.236572,0.880859,26.554878,13.871951,-11.798780,2
15:16:43.637,0.213379,-0.235352,1.325684,0.884146,-10.182927,9.329268,2
15:16:43.769,0.001709,-0.226807,0.833496,17.621952,18.993902,-3.689024,2
15:16:43.957,-0.112549,-0.269531,0.894043,8.445122,-5.762195,-6.402439,2
15:16:44.038,-0.120850,-0.133057,1.103760,10.518293,5.670732,-0.853659,2
15:16:44.163,-0.162109,-0.165771,0.925293,20.884148,-39.969513,-25.457317,2
15:16:44.337,0.175781,-0.148926,0.763672,-12.134147,-6.554878,-3.506098,2
15:16:44.433,0.009277,-0.167725,1.189941,-8.048780,16.920732,31.585367,2
15:16:44.553,-0.024170,-0.457764,0.946533,2.500000,-4.634147,-4.664634,2
15:16:44.693,-0.125000,-0.020752,1.167236,5.060976,12.957317,-15.975610,2
15:16:44.808,-0.132812,-0.194580,0.936035,36.585365,-32.286587,-13.475610,2
15:16:44.954,0.106934,0.003662,0.749023,-2.652439,-2.134146,4.024390,2
15:16:45.128,0.008301,-0.091309,1.006836,-3.018293,30.731709,13.201220,2
15:16:45.185,0.059814,-0.268799,1.063965,9.237805,0.487805,7.530488,2
15:16:45.319,-0.371094,0.073730,0.985840,1.402439,8.140244,-13.993903,2
15:16:45.497,-0.195068,-0.174316,0.917969,13.567074,-40.030487,-9.817074,2
15:16:45.586,0.231934,0.196777,1.248535,-17.530489,-1.829268,0.152439,2
15:16:45.750,0.007080,0.041992,1.068115,1.585366,28.719513,-3.201220,2
15:16:45.876,-0.028809,-0.261963,0.940186,18.871952,-0.670732,-0.579268,2
15:16:45.986,-0.319824,0.041504,0.986328,2.957317,8.628049,-0.792683,2
15:16:46.135,-0.219482,-0.149414,1.000244,17.713415,-18.658537,-6.707317,2
15:16:46.233,-0.058594,-0.123535,0.823730,5.152439,-2.896342,15.182927,2
15:16:46.368,-0.097168,-0.063721,1.007080,-3.567073,18.536587,-10.365854,2
15:16:46.554,0.316406,-0.223877,1.177246,-5.640244,11.036586,-19.908537,2
15:16:46.636,-0.263916,-0.180420,0.895508,6.432927,1.067073,-5.518293,2
15:16:46.769,-0.201904,-0.158447,1.111084,10.548780,-1.524390,8.689025,2
15:16:46.951,-0.135010,-0.135986,0.950684,17.957317,-28.109756,39.634148,2
15:16:47.016,0.243896,0.305420,1.467529,-17.896341,-10.304878,-6.859756,2
15:16:47.152,0.104736,0.081055,1.007324,-4.390244,25.945122,-30.457317,2
15:16:47.347,-0.068848,-0.135010,0.880615,1.829268,1.006098,1.646342,2
15:16:47.428,-0.242188,-0.197021,1.031250,1.189024,5.030488,12.134147,2
15:16:47.561,-0.142578,-0.139160,0.972168,15.000000,-30.274391,9.298780,2
15:16:47.695,0.028076,-0.171143,0.674316,4.878049,-5.243903,10.182927,2
15:16:47.881,-0.046387,-0.071533,0.935547,-30.091465,25.335367,-16.463415,2
15:16:47.943,0.005371,-0.228027,1.075195,9.115854,6.585366,-23.292683,2
15:16:48.079,-0.068604,-0.353516,1.069580,0.426829,0.182927,13.262196,2
15:16:48.246,-0.143799,-0.247314,0.921875,13.109756,-18.810976,18.414635,2
15:16:48.347,-0.042969,-0.114258,0.821777,9.725610,-14.329268,6.737805,2
15:16:48.454,-0.018311,-0.119873,0.980957,-1.890244,15.701220,0.579268,2
15:16:48.664,0.028809,-0.350098,1.045410,2.652439,4.176829,23.231709,2
15:16:48.732,-0.101807,-0.148193,1.011719,2.926829,4.786585,-16.676830,2
15:16:48.844,0.006348,-0.007812,1.026855,8.536586,1.768293,-17.378050,2
15:16:48.988,-0.142822,-0.244629,0.864746,-0.243902,-13.201220,-5.060976,2
15:16:49.168,-0.063965,-0.165527,0.956787,0.640244,0.243902,6.097561,2
15:16:49.222,0.106445,-0.247559,0.884033,18.262196,2.957317,0.701220,2
15:16:49.380,-0.120117,0.030762,0.968018,5.091464,6.371952,-9.512196,2
15:16:49.568,-0.153320,-0.039307,1.066406,5.396342,-2.652439,-14.115854,2
15:16:49.626,-0.083984,-0.133545,0.908936,24.329269,0.365854,10.792684,2
15:16:49.759,-0.112305,0.013428,0.968750,-14.176829,4.359756,-2.042683,2
15:16:49.957,0.155273,-0.202393,0.898193,3.506098,15.792684,-1.554878,2
15:16:50.005,-0.131348,-0.086182,1.025146,9.512196,0.670732,-5.518293,2
15:16:50.166,-0.197998,-0.019775,1.012695,4.908537,5.670732,3.597561,2
15:16:50.327,-0.128906,-0.096680,0.956299,12.926829,-42.073174,-13.353659,2
15:16:50.405,0.074707,-0.042480,0.715576,-6.341464,-5.121951,1.097561,2
15:16:50.557,0.033447,0.074707,1.036133,-23.445122,39.969513,-25.914635,2
15:16:50.717,-0.010010,-0.184326,1.025391,6.737805,-11.006098,-15.792684,2
15:16:50.831,-0.241943,-0.155762,0.986816,0.670732,11.402439,8.871951,2
15:16:50.960,-0.231689,-0.203125,0.912598,1.310976,-20.060976,7.774390,2
15:16:51.056,0.019775,-0.147217,0.840820,-4.512195,-10.304878,-1.737805,2
15:16:51.197,-0.153076,-0.089600,0.881836,-36.006100,20.731709,-11.890244,2
15:16:51.369,0.148438,-0.172119,1.170654,3.018293,-1.310976,-20.060976,2
15:16:51.458,-0.205811,-0.364014,0.951416,3.658537,0.579268,15.274390,2
15:16:51.603,-0.155273,-0.239502,0.948242,12.926829,-14.085366,10.243902,2
15:16:51.770,-0.026123,-0.145996,0.823242,12.500000,-11.097561,5.121951,2
15:16:51.835,-0.035889,-0.043701,0.944092,7.835366,4.908537,6.798780,2
15:16:51.970,0.013184,-0.316406,1.046875,-3.628049,9.664635,17.896341,2
15:16:52.163,-0.095215,-0.064209,1.023438,7.591464,0.945122,-13.262196,2
15:16:52.244,-0.009277,-0.024170,1.037842,5.670732,4.268293,-23.536587,2
15:16:52.360,-0.125244,-0.238525,0.890381,-4.664634,-5.213415,4.817073,2
15:16:52.551,-0.078369,-0.231201,0.989014,-15.091464,-2.926829,1.585366,2
15:16:52.629,0.105469,-0.320557,0.862061,10.213415,11.250000,12.774390,2
15:16:52.749,-0.171875,-0.081299,0.973633,3.628049,4.542683,-5.914634,2
15:16:52.947,-0.143799,-0.101318,1.066162,6.158537,-0.792683,-16.951220,2
15:16:53.028,-0.115234,-0.119385,0.859863,34.908539,10.030488,-6.097561,2
15:16:53.160,-0.023438,-0.388184,1.067871,-8.993902,-3.048780,5.121951,2
15:16:53.347,0.079346,-0.193359,0.867676,10.762196,14.024390,-3.048780,2
15:16:53.420,-0.042969,-0.197021,1.018555,15.365854,-2.317073,-11.402439,2
15:16:53.535,-0.178711,-0.027588,0.949951,-2.957317,1.036585,2.530488,2
15:16:53.719,-0.169678,-0.172607,0.973145,28.079269,-32.073170,-15.945123,2
15:16:53.803,0.072754,-0.227539,0.698486,-12.743903,-3.750000,4.969512,2
15:16:53.935,0.047119,-0.159424,1.092529,22.652439,22.500000,-24.695122,2
15:16:54.119,-0.024170,-0.054932,1.051270,5.182927,0.640244,-7.225610,2
15:16:54.204,-0.178955,-0.271484,0.970703,1.981707,2.225610,8.292683,2
15:16:54.321,-0.136475,-0.161865,0.968994,4.268293,-13.810976,7.957317,2
15:16:54.510,0.034912,-0.121582,0.909180,-6.554878,-12.987805,4.634147,2
15:16:54.586,-0.014160,-0.116455,0.956543,5.396342,8.658537,-13.902439,2
15:16:54.721,0.138184,-0.105469,1.199951,-0.518293,2.225610,-20.213415,2
15:16:54.901,-0.140137,-0.219238,0.921875,-2.682927,-2.317073,13.170732,2
15:16:54.990,-0.105225,-0.205322,0.958740,-0.640244,-9.085366,19.695122,2
15:16:55.101,-0.023193,-0.091797,0.902344,4.115854,-2.012195,-6.219512,2
15:16:55.300,-0.023926,-0.348877,0.898438,-11.341464,-7.896342,-5.579268,2
15:16:55.367,0.125732,-0.256592,0.922119,3.109756,20.518293,5.762195,2
15:16:55.499,-0.064941,-0.145508,0.936035,-10.975610,-3.902439,11.158537,2
15:16:55.686,-0.206055,-0.088379,1.006104,8.750000,10.670732,-11.463415,2
15:16:55.767,-0.148193,-0.144531,1.019043,14.725610,-25.304878,-12.012196,2
15:16:55.879,0.177979,-0.100586,0.867188,-5.182927,-6.615854,-5.060976,2
15:16:56.088,0.015869,-0.115479,1.102295,2.134146,27.835367,0.487805,2
15:16:56.133,-0.024170,-0.240723,0.973633,18.292683,4.756098,-3.993902,2
15:16:56.271,-0.252197,0.052979,1.051758,1.615854,4.207317,-0.152439,2
15:16:56.461,-0.176025,-0.127930,0.981201,1.463415,-12.591464,-1.310976,2
15:16:56.540,-0.021973,-0.172607,0.939941,1.676829,10.243902,-4.542683,2
15:16:56.652,0.067383,-0.083008,1.145020,-10.182927,11.829268,-12.317074,2
15:16:56.855,0.234619,-0.176758,1.117432,7.012195,0.304878,-11.554878,2
15:16:56.920,-0.147705,-0.145508,0.921387,0.487805,2.682927,-6.768293,2
15:16:57.053,-0.204590,-0.090088,1.038574,1.646342,3.109756,12.073171,2
15:16:57.245,-0.117920,-0.107422,0.979004,4.847561,-8.689025,3.628049,2
15:16:57.309,0.056396,-0.093018,0.901855,-6.128049,-1.951220,0.426829,2
15:16:57.451,-0.092773,-0.046875,0.957031,7.926829,29.725611,-11.219513,2
15:16:57.637,0.155273,-0.211182,1.111816,3.628049,3.475610,-1.493902,2
15:16:57.700,-0.234131,-0.123779,0.986572,3.384146,0.487805,-4.146341,2
15:16:57.841,-0.265381,-0.028320,0.984863,4.024390,-3.384146,-1.615854,2
15:16:57.986,-0.133301,-0.115479,0.959473,12.469513,-15.609756,1.432927,2
15:16:58.125,0.112305,-0.133057,1.000732,-6.158537,7.835366,-3.993902,2
15:16:58.240,-0.117920,0.025879,0.909424,-18.231709,9.908537,14.725610,2
15:16:58.380,0.023682,-0.388184,1.097168,5.091464,-3.475610,9.817074,2
15:16:58.486,-0.086670,-0.031006,1.026367,7.286585,11.280488,-16.524391,2
15:16:58.657,-0.002441,0.024902,1.039062,0.396341,-10.182927,-14.939025,2
15:16:58.749,-0.072754,-0.131836,0.893799,-13.567074,-9.908537,1.981707,2
15:16:58.900,0.004883,-0.203613,1.046387,-18.993902,-4.085366,-1.829268,2
15:16:59.028,0.089111,-0.141113,0.950928,3.780488,14.664635,-27.591465,2
15:16:59.135,-0.135010,-0.145264,0.956055,1.798781,-0.426829,9.969512,2
15:16:59.293,-0.116455,-0.257812,0.956055,-0.152439,-6.128049,11.676829,2
15:16:59.435,-0.032227,-0.072510,0.957520,7.378049,-7.682927,-1.341463,2
15:16:59.602,-0.054932,-0.182861,0.994629,6.646342,-3.810976,-6.890244,2
15:16:59.671,0.124268,-0.260986,0.909424,2.560976,13.445123,18.018293,2
15:16:59.809,-0.117188,-0.050049,0.991211,0.426829,4.298780,-8.810976,2
15:16:59.929,-0.076904,-0.060059,1.083984,4.054878,-2.835366,-19.359756,2
15:17:00.087,-0.083984,-0.127197,0.885986,24.237806,5.609756,-1.280488,2
15:17:00.169,-0.047607,-0.107910,0.991211,-19.786587,1.036585,-1.128049,2
15:17:00.313,0.090576,-0.282227,0.856689,-1.920732,18.506098,-7.256098,2
15:17:00.459,-0.087891,-0.207275,0.997803,8.993902,-0.823171,-5.487805,2
15:17:00.595,-0.173340,-0.090332,0.971191,3.018293,1.737805,-0.274390,2
15:17:00.710,-0.072510,-0.203613,0.953125,40.243904,-9.115854,10.731708,2
15:17:00.851,0.221680,-0.126465,1.371338,-15.091464,-5.030488,1.341463,2
15:17:00.959,0.089111,-0.016602,0.949219,-8.902439,17.865854,-26.250000,2
15:17:01.146,-0.031006,-0.177734,0.934082,6.158537,-7.560976,-3.231707,2
15:17:01.229,-0.177734,-0.183105,1.066162,2.195122,8.597561,10.091464,2
15:17:01.340,-0.158936,-0.128906,0.966797,9.237805,-13.262196,7.865854,2
15:17:01.518,0.000000,-0.174561,0.916992,-15.091464,-8.902439,4.237805,2
15:17:01.614,-0.074707,-0.074707,0.905518,-35.274391,3.079268,-10.365854,2
15:17:01.740,0.076904,-0.158936,1.006592,2.042683,9.969512,-23.384148,2
15:17:01.879,-0.135498,-0.258545,1.022949,5.609756,7.164634,11.676829,2
15:17:02.025,-0.108398,-0.204346,0.993896,3.506098,-18.201220,17.835367,2
15:17:02.163,-0.000244,-0.063232,0.895264,-16.920732,-11.676829,-1.676829,2
15:17:02.272,-0.022949,-0.226074,0.868652,-15.975610,8.993902,15.701220,2
15:17:02.399,0.072754,-0.350586,1.066650,0.121951,7.378049,4.695122,2
15:17:02.548,-0.089355,-0.221191,1.038574,2.621951,0.518293,-10.000000,2
15:17:02.665,-0.204102,-0.030029,1.027100,4.298780,-2.408537,-13.628049,2
15:17:02.806,-0.054443,-0.227295,0.953125,-15.853659,-2.500000,24.329269,2
15:17:02.902,0.169434,-0.192383,1.239014,-14.451220,-12.042684,0.213415,2
15:17:03.067,0.050537,-0.040283,0.881836,-11.310976,23.048780,-8.262196,2
15:17:03.205,-0.031250,-0.150391,1.006592,1.006098,3.475610,-1.676829,2
15:17:03.301,-0.318604,-0.042236,1.028076,7.469512,4.115854,-1.432927,2
15:17:03.444,-0.152588,-0.139404,0.945068,2.835366,-13.536586,5.213415,2
15:17:03.621,0.026855,-0.166260,0.859619,5.792683,-8.475610,22.713415,2
15:17:03.685,-0.162354,0.071045,0.987793,-13.658537,12.042684,-6.097561,2
15:17:03.836,0.237305,-0.204590,1.054443,-3.841464,19.176830,-22.408537,2
15:17:03.997,-0.169678,-0.148193,1.016602,3.231707,-11.829268,-2.621951,2
15:17:04.064,-0.276611,-0.091797,0.959473,4.115854,24.390244,12.134147,2
15:17:04.234,-0.305664,-0.143799,0.961426,5.792683,-20.274391,13.993903,2
15:17:04.382,-0.003174,-0.137939,0.834717,53.963417,20.060976,-20.000000,2
15:17:04.469,-0.037109,0.128662,1.035156,-33.292683,-1.951220,-7.195122,2
15:17:04.615,0.246826,-0.183350,1.005859,-4.939024,7.439024,-37.073174,2
15:17:04.784,-0.188477,-0.069092,0.943848,0.914634,0.914634,-1.585366,2
15:17:04.867,-0.165283,-0.277832,1.100098,1.920732,2.987805,19.634148,2
15:17:05.009,-0.121094,-0.191650,0.895508,27.926830,-31.310976,32.164635,2
15:17:05.186,0.105957,-0.142334,1.045410,-1.676829,-7.713415,6.554878,2
15:17:05.253,0.014160,-0.013184,1.078857,-15.365854,24.024391,-12.500000,2
15:17:05.393,-0.009033,-0.186523,1.045654,2.774390,2.804878,15.762196,2
15:17:05.569,-0.168945,-0.186279,0.960449,2.408537,-0.670732,-1.371951,2
15:17:05.652,-0.207764,0.046875,1.049561,5.548780,4.512195,-10.975610,2
15:17:05.799,-0.159424,-0.135498,0.912109,7.164634,-39.817074,15.762196,2
15:17:05.924,0.307617,0.040039,1.344482,-6.432927,-3.871951,5.457317,2
15:17:06.040,0.028320,0.009766,1.017822,-10.000000,19.329269,-22.103659,2
15:17:06.247,-0.044189,-0.162354,1.017578,6.036585,7.896342,4.268293,2
15:17:06.295,-0.179199,-0.279053,0.996582,4.115854,6.829268,14.664635,2
15:17:06.433,-0.233398,-0.072266,0.884766,11.341464,-11.920732,-6.524390,2
15:17:06.609,0.061035,-0.024902,1.031982,-68.048782,-2.134146,34.237804,2
15:17:06.696,-0.095215,-0.727783,1.089355,-13.414635,1.097561,-0.426829,2
15:17:06.809,-0.015137,-0.010986,0.969971,-2.347561,11.951220,12.256098,2
15:17:06.989,-0.108154,-0.307617,1.003418,10.548780,-7.804878,8.932927,2
15:17:07.080,-0.188965,0.066406,0.976562,5.548780,9.878049,-16.432928,2
15:17:07.224,-0.138916,-0.083740,1.033447,29.237806,-30.213415,-27.164635,2
15:17:07.399,0.092529,-0.261230,0.784180,-3.384146,-5.182927,7.621952,2
15:17:07.470,0.028320,0.063232,1.114502,6.768293,9.054878,-0.243902,2
15:17:07.581,0.181396,-0.230713,1.164551,5.182927,7.378049,-4.603659,2
15:17:07.757,-0.150635,-0.115967,1.002686,6.402439,2.804878,-4.695122,2
15:17:07.846,-0.174805,-0.081787,1.016357,-1.006098,-4.573171,-1.189024,2
15:17:07.999,-0.103027,-0.102783,0.925293,19.390244,6.676829,6.737805,2
15:17:08.175,0.164795,-0.132568,1.354980,-31.646341,-10.945122,-6.006098,2
15:17:08.256,0.077148,0.006348,0.859131,-5.396342,16.859756,-25.457317,2
15:17:08.378,-0.134277,-0.166260,0.995605,7.530488,1.646342,0.731707,2
15:17:08.596,-0.182373,-0.119385,1.030518,0.731707,0.182927,11.646341,2
15:17:08.639,-0.098389,-0.090088,0.946533,4.878049,5.670732,19.786587,2
15:17:08.771,0.198730,-0.076904,1.196777,-8.841464,-7.225610,-3.902439,2
15:17:08.957,0.060059,0.086426,1.038086,-10.304878,16.158537,-30.762196,2
15:17:09.039,0.029541,-0.015869,1.086426,-3.810976,9.176829,-22.469513,2
15:17:09.151,-0.186523,-0.275391,1.024414,4.115854,-3.262195,14.908537,2
15:17:09.364,-0.078613,-0.183350,0.937988,-11.554878,-11.615854,30.274391,2
15:17:09.416,0.017090,-0.071533,0.921875,4.481708,-8.048780,-3.262195,2
15:17:09.549,-0.059082,-0.136719,0.892090,-11.951220,11.554878,-4.969512,2
15:17:09.736,0.181152,-0.355957,0.999756,-3.841464,0.701220,19.268293,2
15:17:09.817,-0.104004,-0.093506,0.998535,1.920732,7.317073,-7.469512,2
15:17:09.945,-0.164307,0.000488,1.064453,6.798780,0.945122,-17.042683,2
15:17:10.133,-0.111816,-0.144287,0.899658,-8.414635,0.000000,22.347561,2
15:17:10.209,0.201416,-0.599609,1.256104,-10.365854,-5.365854,1.463415,2
15:17:10.341,0.062256,-0.094238,0.933594,2.743902,14.054878,-6.554878,2
15:17:10.531,-0.018311,-0.187500,0.979004,7.042683,0.640244,-4.847561,2
15:17:10.609,-0.233887,0.003418,0.986328,9.298780,12.073171,-6.859756,2
15:17:10.703,-0.195312,-0.140869,1.023926,14.512196,-10.487805,-7.682927,2
15:17:10.899,-0.016113,-0.107178,0.946533,29.268293,22.134148,-13.018293,2
15:17:10.967,-0.317627,0.383301,0.669434,-21.859756,-7.195122,-0.426829,2
15:17:11.111,0.198242,0.091553,0.908936,-10.670732,15.396342,-19.939024,2
15:17:11.297,-0.079102,-0.303711,1.065430,7.713415,2.195122,-5.396342,2
15:17:11.385,-0.327881,-0.052002,1.039795,2.926829,5.731708,10.701220,2
15:17:11.502,-0.185547,-0.145020,0.928223,9.359756,-20.457317,5.152439,2
15:17:11.690,0.122803,-0.097656,0.798340,-23.841463,-14.451220,-9.969512,2
15:17:11.768,0.045898,-0.058350,1.064941,7.469512,21.829269,-10.945122,2
15:17:11.881,0.068604,-0.160889,1.075439,-1.768293,4.054878,-17.042683,2
15:17:12.056,-0.178711,-0.131104,1.017822,-2.012195,4.756098,-3.262195,2
15:17:12.150,-0.177002,-0.183594,1.011230,2.530488,-5.640244,17.713415,2
15:17:12.309,-0.040771,-0.149902,0.907715,40.823174,18.841463,-6.890244,2
15:17:12.425,0.180908,0.020264,1.390381,-28.109756,-12.774390,-2.652439,2
15:17:12.534,0.080078,0.077881,0.874756,-13.841464,13.628049,-39.603661,2
15:17:12.717,-0.061035,-0.182617,0.987549,0.762195,5.060976,7.804878,2
15:17:12.802,-0.182129,-0.223145,1.022705,-0.426829,-4.329268,22.621952,2
15:17:12.955,-0.107422,-0.179443,0.905518,-6.036585,-11.981708,27.469513,2
15:17:13.129,0.277100,0.132324,1.465820,-8.262196,-13.140244,-0.396341,2
15:17:13.198,0.049316,-0.131836,0.913574,11.310976,18.902439,-8.810976,2
15:17:13.330,0.014893,-0.133301,1.014160,4.634147,9.146341,-5.579268,2
15:17:13.514,-0.231934,-0.038086,1.040283,1.646342,1.524390,-5.731708,2
15:17:13.596,-0.189453,-0.168213,1.017578,7.500000,-9.359756,1.951220,2
15:17:13.731,-0.028564,-0.097412,0.973389,-1.432927,14.603659,-9.237805,2
15:17:13.917,0.117920,-0.369629,1.104980,-4.603659,4.146341,-0.579268,2
15:17:13.974,0.269775,-0.153320,1.119873,5.670732,8.750000,-1.402439,2
15:17:14.107,-0.180420,-0.150635,0.954102,6.250000,1.402439,-7.347561,2
15:17:14.291,-0.288818,-0.060547,1.033447,-0.609756,-4.085366,-0.365854,2
15:17:14.373,-0.122314,-0.162842,0.945801,21.097561,-28.048780,-9.237805,2
15:17:14.526,0.208984,-0.044189,0.879639,-23.628050,-6.219512,3.536585,2
15:17:14.677,0.014893,-0.135498,0.968994,14.054878,21.250000,-6.097561,2
15:17:14.765,0.027588,-0.098389,0.977783,8.109756,-5.609756,-0.243902,2
15:17:14.924,-0.310547,-0.008057,0.932129,-1.280488,15.518293,-2.134146,2
15:17:15.021,-0.227539,-0.176758,1.072998,3.231707,-13.292684,-7.439024,2
15:17:15.226,-0.014893,-0.157227,0.967529,15.670732,-11.554878,1.341463,2
15:17:15.282,0.327393,0.127441,1.318359,-16.006098,-8.475610,-0.853659,2
15:17:15.417,0.036865,-0.071289,0.914795,1.646342,16.798780,8.323171,2
15:17:15.588,-0.064453,-0.150879,0.977051,9.054878,-2.347561,0.640244,2
15:17:15.683,-0.222900,0.069336,0.947021,9.756098,3.750000,-15.609756,2
15:17:15.806,-0.168945,-0.034424,1.024658,2.804878,-19.664635,-16.829269,2
15:17:15.947,0.038574,-0.227539,0.809082,0.030488,-7.652439,-8.963415,2
15:17:16.076,-0.018311,-0.117432,0.965820,-13.079268,17.652439,26.036587,2
15:17:16.200,0.031494,-0.387207,0.963623,-0.762195,2.195122,-1.676829,2
15:17:16.323,-0.175537,0.082031,1.082764,-2.652439,6.189024,-22.621952,2
15:17:16.501,-0.068604,-0.100098,0.970459,3.445122,-10.457317,-10.853659,2
15:17:16.582,0.049072,-0.211914,0.906250,9.756098,-8.506098,5.609756,2
15:17:16.731,-0.017822,-0.222656,1.096436,-0.274390,15.152439,15.091464,2
15:17:16.884,0.077881,-0.161865,1.071533,-6.554878,18.628050,12.957317,2
15:17:16.964,-0.126221,-0.057129,1.024170,3.536585,-4.329268,-28.201220,2
15:17:17.098,-0.052734,-0.019043,1.011475,-4.115854,-8.902439,-14.847561,2
15:17:17.276,-0.007080,-0.161621,0.959717,33.170731,4.298780,8.932927,2
15:17:17.361,-0.243408,-0.164795,0.973389,-14.664635,-9.725610,-3.445122,2
15:17:17.500,0.030518,-0.024658,0.844482,-9.634147,17.103659,-30.701220,2
15:17:17.650,-0.091064,-0.110352,0.977051,1.554878,8.323171,-7.286585,2
15:17:17.754,-0.128662,-0.276855,0.966797,-3.963415,-1.798781,11.676829,2
15:17:17.934,-0.095947,-0.181641,0.971436,-2.225610,-4.695122,20.030489,2
15:17:18.009,-0.052246,-0.165039,0.964844,51.829269,-2.987805,4.420732,2
15:17:18.148,-0.154053,0.008545,1.032715,-34.542683,-14.664635,-7.652439,2
15:17:18.316,0.088379,0.059814,0.891602,26.646341,22.926830,-29.054878,2
15:17:18.391,-0.046875,-0.272461,0.928467,11.768293,4.176829,-10.030488,2
15:17:18.539,-0.237549,-0.058350,1.049805,-4.329268,2.896342,8.079268,2
15:17:18.721,-0.164551,-0.135498,0.972900,15.853659,-6.981708,9.939025,2
15:17:18.793,-0.002686,-0.120361,0.950195,16.067074,7.774390,-9.786586,2
15:17:18.934,0.059082,-0.149658,1.230957,-15.426829,-11.798780,-8.567074,2
15:17:19.108,0.158936,-0.197998,0.885010,6.859756,12.560976,-13.445123,2
15:17:19.176,-0.094482,-0.077148,0.954102,-0.945122,1.402439,-5.000000,2
15:17:19.315,-0.196289,0.013184,1.034912,1.798781,2.713415,3.475610,2
15:17:19.488,-0.183350,-0.082764,0.970703,1.585366,-3.231707,2.591464,2
15:17:19.586,-0.065918,-0.086182,0.907471,1.859756,5.640244,-10.060976,2
15:17:19.720,0.001465,-0.100098,1.070557,-30.670732,-15.914635,-0.274390,2
15:17:19.901,0.129883,-0.125977,0.812744,-8.810976,13.810976,-3.841464,2
15:17:19.991,-0.024170,-0.198975,0.948242,1.341463,3.323171,1.676829,2
15:17:20.115,-0.156006,-0.124756,0.993408,3.353659,7.347561,-2.103659,2
15:17:20.247,-0.189209,-0.134277,1.007568,3.414634,-7.225610,3.841464,2
15:17:20.385,-0.015625,-0.114014,0.897217,-39.298782,0.609756,23.262196,2
15:17:20.478,0.384033,-0.754883,1.517090,-5.823171,-3.445122,2.439024,2
15:17:20.629,0.124512,-0.133789,0.885254,-2.987805,14.512196,11.250000,2
15:17:20.829,-0.074463,-0.169434,0.909424,-1.707317,-9.939025,1.768293,2
15:17:20.874,-0.186768,-0.031250,0.988037,5.609756,9.146341,-9.115854,2
15:17:21.006,-0.135986,-0.096924,1.033691,12.865854,-4.542683,-11.463415,2
15:17:21.196,-0.012939,-0.128662,0.923584,-12.804878,-6.006098,5.884147,2
15:17:21.271,0.111572,-0.273193,1.262207,-12.347561,-7.164634,-2.073171,2
15:17:21.410,0.080811,-0.182373,0.869141,-2.408537,14.054878,11.189025,2
15:17:21.596,-0.137207,-0.150391,0.934082,2.195122,-1.829268,-10.243902,2
15:17:21.658,-0.118896,0.007568,1.053955,2.103659,8.201220,-15.640244,2
15:17:21.834,-0.078125,-0.088379,0.967041,9.603659,-14.085366,-11.250000,2
15:17:21.939,-0.016357,-0.154297,0.772217,2.408537,-9.695122,-7.073171,2
15:17:22.097,0.045410,-0.320312,0.934326,0.975610,23.140244,10.548780,2
15:17:22.193,-0.050781,-0.138916,1.163818,-2.896342,0.548781,7.103659,2
15:17:22.351,-0.147217,-0.038574,0.939941,5.853659,2.530488,-12.042684,2
15:17:22.422,0.035889,0.004395,1.040039,4.878049,6.067073,-17.713415,2
15:17:22.605,-0.108398,-0.121582,0.924561,43.628048,3.018293,-7.164634,2
15:17:22.719,0.056885,-0.342529,1.300537,-8.384147,-6.768293,-2.865854,2
15:17:22.858,0.089600,0.066650,0.824463,-21.402439,20.060976,-39.573174,2
15:17:22.956,-0.097168,-0.156738,0.972900,1.981707,3.262195,0.945122,2
15:17:23.093,-0.169922,-0.264404,1.006348,-2.256098,-0.426829,21.981709,2
15:17:23.250,-0.082520,-0.156250,0.974854,-3.871951,-19.451220,7.774390,2
15:17:23.367,0.087158,0.021729,1.056152,6.646342,-7.835366,2.743902,2
15:17:23.492,-0.025146,-0.073242,0.944824,-16.280489,11.890244,3.597561,2
15:17:23.661,0.008545,-0.203125,1.052734,0.792683,5.335366,-0.335366,2
15:17:23.747,-0.125732,-0.110107,1.045166,7.591464,5.182927,0.853659,2
15:17:23.883,-0.210205,-0.101074,0.976318,5.060976,-1.280488,-2.500000,2
15:17:24.046,-0.115723,-0.130615,0.886719,-20.365854,-3.079268,13.079268,2
15:17:24.155,0.311768,-0.335693,1.441650,-34.634148,-1.585366,-3.536585,2
15:17:24.261,0.017822,-0.033203,0.922852,3.475610,20.884148,-25.731709,2
15:17:24.448,-0.048828,-0.147461,0.955322,4.024390,-11.219513,-6.067073,2
15:17:24.532,-0.180176,-0.187744,1.102295,5.426829,5.640244,7.317073,2
15:17:24.668,-0.145020,-0.144775,0.947021,0.487805,-4.237805,6.829268,2
15:17:24.803,-0.034668,-0.161621,0.897461,17.500000,11.646341,8.871951,2
15:17:24.966,-0.246338,-0.016357,0.928223,1.859756,-4.939024,-2.439024,2
15:17:25.045,0.161865,-0.289307,0.875000,-0.060976,7.225610,11.554878,2
15:17:25.194,-0.149170,-0.092529,0.991943,0.487805,1.676829,-7.652439,2
15:17:25.310,-0.097168,-0.108154,1.031494,7.713415,2.073171,-21.341463,2
15:17:25.484,-0.076660,-0.165527,0.929688,28.963415,-0.823171,1.737805,2
15:17:25.567,-0.030762,-0.074951,1.069092,-12.408537,-8.353659,6.036585,2
15:17:25.700,0.077393,-0.183350,0.961426,11.585366,34.603661,6.951220,2
15:17:25.885,-0.057861,-0.114258,1.013672,0.365854,-11.067074,-1.250000,2
15:17:25.965,-0.209229,-0.093750,0.973389,4.664634,3.993902,-8.871951,2
15:17:26.114,-0.167236,-0.080811,1.046875,9.298780,-4.817073,-16.859756,2
15:17:26.257,-0.008057,-0.158936,0.908936,-8.292683,8.323171,20.030489,2
15:17:26.385,0.119629,-0.295898,1.159668,-17.012196,-6.646342,-3.750000,2
15:17:26.496,0.081299,-0.034424,0.862305,-1.097561,16.432928,-5.640244,2
15:17:26.639,-0.024414,-0.113281,0.978027,-5.182927,-9.847561,-0.548781,2
15:17:26.761,-0.249512,-0.065430,1.034668,12.469513,10.487805,-0.945122,2
15:17:26.878,-0.168213,-0.050537,0.997803,8.048780,-11.981708,-1.707317,2
15:17:26.989,0.014404,-0.116211,0.859375,24.939026,20.243902,-1.798781,2
15:17:27.179,-0.167725,0.017578,0.920166,-3.932927,8.841464,-4.847561,2
15:17:27.265,0.253662,-0.151855,0.992188,-0.579268,4.024390,-12.195122,2
15:17:27.400,-0.127930,-0.172607,0.962891,2.500000,1.981707,-5.701220,2
15:17:27.532,-0.267578,-0.134521,1.094482,1.829268,3.567073,11.250000,2
15:17:27.645,-0.148193,-0.129883,0.995361,-3.079268,-21.676830,4.298780,2
15:17:27.781,0.094727,-0.182617,0.820068,-0.396341,-13.993903,-6.981708,2
15:17:27.961,0.031982,-0.126221,0.856201,17.652439,45.091465,-7.865854,2
15:17:28.050,0.017578,-0.205322,0.957031,10.548780,-3.140244,-1.463415,2
15:17:28.186,-0.260498,-0.108398,0.999268,8.323171,7.682927,-3.689024,2
15:17:28.336,-0.273438,-0.049561,1.030273,2.042683,2.042683,1.615854,2
15:17:28.447,-0.127441,-0.098633,0.978760,9.481708,-22.195122,-2.682927,2
15:17:28.588,0.071045,-0.170410,0.841309,-10.182927,-8.323171,-3.109756,2
15:17:28.704,-0.091309,-0.116943,0.954102,-13.536586,23.628050,21.524391,2
15:17:28.855,0.147461,-0.393311,1.105225,3.902439,7.439024,6.341464,2
15:17:28.987,-0.219482,-0.101318,0.963867,8.323171,0.762195,-8.506098,2
15:17:29.084,-0.219238,-0.020264,1.045898,9.939025,-6.829268,-18.048780,2
15:17:29.225,-0.049805,-0.166992,0.929688,-38.475609,-10.792684,25.182928,2
15:17:29.387,0.246338,-0.169678,1.404297,-5.914634,-1.829268,-0.396341,2
15:17:29.484,0.006348,-0.006348,0.997314,-1.737805,24.878050,16.036585,2
15:17:29.628,-0.199463,-0.127197,0.934570,5.823171,-6.006098,-10.030488,2
15:17:29.801,-0.100098,-0.025635,1.117676,5.884147,9.512196,-13.201220,2
15:17:29.856,-0.138916,-0.158936,0.958008,39.573174,-29.085367,-37.835365,2
15:17:30.014,0.139160,0.003418,0.750244,48.445122,-3.810976,4.573171,2
15:17:30.173,0.004639,0.011230,1.002197,-22.256098,24.237806,6.646342,2
15:17:30.258,-0.037109,-0.141113,1.103271,-18.445122,-7.469512,14.786586,2
15:17:30.404,-0.136230,-0.000977,0.960693,6.554878,1.310976,-16.097561,2
15:17:30.578,0.052734,-0.011230,1.078125,0.152439,-0.853659,-14.024390,2
15:17:30.633,-0.083252,-0.168945,0.930908,43.536587,15.335366,-3.780488,2
15:17:30.791,-0.111816,-0.046143,1.156494,-42.774391,-11.219513,-9.146341,2
15:17:30.958,0.088135,-0.058594,0.853271,4.756098,23.231709,-33.750000,2
15:17:31.032,-0.130615,-0.153564,0.876953,2.073171,-0.945122,-1.646342,2
15:17:31.173,-0.125000,-0.277100,1.044678,1.554878,0.243902,21.798780,2
15:17:31.359,-0.090576,-0.169678,0.955078,4.573171,-6.432927,7.408537,2
15:17:31.430,0.010498,-0.095459,0.962891,-12.652439,-14.451220,-2.317073,2
15:17:31.562,0.004639,-0.154053,1.062988,-15.518293,6.310976,-0.792683,2
15:17:31.716,0.186279,-0.362061,1.178711,11.585366,2.987805,3.079268,2
15:17:31.807,-0.118408,-0.110840,1.022217,5.365854,4.725610,-4.512195,2
15:17:31.938,-0.176025,-0.131836,1.038574,7.835366,-1.737805,-2.682927,2
15:17:32.116,-0.094238,-0.158691,0.936035,4.512195,-0.335366,21.493902,2
15:17:32.204,0.225098,-0.212646,1.418945,-10.701220,-5.579268,1.250000,2
15:17:32.354,0.012695,0.006592,0.985596,-12.774390,20.243902,8.658537,2
15:17:32.480,-0.087402,-0.274170,0.993652,2.896342,-3.414634,9.756098,2
15:17:32.641,-0.180176,0.007324,0.922852,-1.280488,4.695122,-12.896341,2
15:17:32.735,-0.093994,-0.101807,1.057617,9.146341,-0.914634,-12.621951,2
15:17:32.884,-0.047119,-0.176025,0.905273,6.493903,9.908537,-7.286585,2
15:17:33.016,-0.132568,-0.139893,1.016113,-19.115854,-6.402439,0.548781,2
15:17:33.157,0.089600,-0.388672,0.916260,4.146341,17.469513,8.567074,2
15:17:33.266,-0.051025,-0.140381,1.000977,-0.701220,-0.396341,10.182927,2
15:17:33.380,-0.225586,-0.003906,0.986816,10.000000,2.560976,-18.506098,2
15:17:33.532,-0.140625,-0.078857,1.001465,8.323171,-13.414635,-11.676829,2
15:17:33.697,-0.016357,-0.227783,0.914795,22.012196,12.987805,-2.652439,2
15:17:33.778,-0.101318,-0.121338,1.028320,-7.042683,-3.902439,-6.341464,2
15:17:33.911,0.141602,-0.294922,0.901123,11.524390,14.024390,-7.195122,2
15:17:34.078,-0.101807,-0.096436,0.979004,3.109756,5.823171,-4.939024,2
15:17:34.147,-0.206055,-0.098633,1.022705,6.524390,-5.914634,-5.640244,2
15:17:34.280,-0.114502,-0.135254,0.971436,-2.621951,-4.481708,2.743902,2
15:17:34.468,-0.015625,-0.180420,0.951904,19.359756,6.707317,-4.634147,2
15:17:34.557,-0.103271,-0.112549,0.904297,-8.475610,-3.292683,-3.841464,2
15:17:34.690,0.094727,-0.274414,0.861084,11.097561,14.359756,-22.408537,2
15:17:34.887,-0.046875,-0.023926,0.955322,5.548780,-7.774390,-7.103659,2
15:17:34.928,-0.206299,-0.243164,1.078613,5.396342,2.682927,8.567074,2
15:17:35.092,-0.121826,-0.102051,0.918213,18.689024,-26.920732,0.000000,2
15:17:35.206,-0.012451,-0.194092,0.753418,-14.908537,-12.103659,1.920732,2
15:17:35.353,0.087891,-0.038818,1.032471,-7.865854,23.475611,3.170732,2
15:17:35.457,0.009766,-0.163086,1.066895,-0.884146,3.292683,-1.036585,2
15:17:35.598,-0.136475,-0.241455,1.017334,10.091464,4.542683,2.164634,2
15:17:35.751,-0.321289,0.017090,0.963379,4.359756,-1.707317,1.067073,2
15:17:35.861,-0.128906,-0.129883,0.944336,29.756098,-23.628050,-7.682927,2
15:17:35.994,0.166748,-0.134521,0.863525,-8.048780,-11.554878,-0.091463,2
15:17:36.157,0.087402,-0.245850,1.108643,8.292683,25.731709,-20.731709,2
15:17:36.245,0.067139,-0.130127,1.158691,4.329268,-5.823171,-19.664635,2
15:17:36.404,-0.132568,-0.388184,1.002197,4.847561,2.652439,16.493902,2
15:17:36.496,-0.119629,-0.140137,0.943604,1.371951,-9.420732,7.042683,2
15:17:36.660,0.010742,-0.116699,0.916016,9.695122,-13.628049,-1.189024,2
15:17:36.802,0.003906,-0.233887,1.053223,19.908537,-6.067073,-2.012195,2
15:17:36.900,0.127686,-0.216309,0.886230,-8.170732,6.128049,19.237804,2
15:17:37.035,-0.153320,-0.130859,1.007568,8.475610,-1.219512,-0.060976,2
15:17:37.220,-0.139648,0.068848,1.038086,8.810976,7.682927,-17.408537,2
15:17:37.270,-0.054199,-0.110107,0.988037,-3.658537,-19.420732,-18.109756,2
15:17:37.444,0.090576,0.113037,1.128418,-0.792683,-4.664634,-2.621951,2
15:17:37.570,0.083252,-0.071777,1.215820,-8.780488,13.445123,10.060976,2
15:17:37.677,0.035645,-0.238037,1.105469,1.006098,7.256098,7.347561,2
15:17:37.808,-0.154541,-0.069092,1.004639,2.957317,-1.707317,-7.469512,2
15:17:37.951,-0.006836,0.007812,0.977051,3.993902,2.591464,-22.286587,2
15:17:38.076,-0.030273,-0.127441,0.990479,-6.402439,-9.908537,23.445122,2
15:17:38.204,0.079590,-0.520020,1.238037,4.878049,-1.981707,-2.347561,2
15:17:38.311,0.036621,0.008545,1.003906,-26.006098,18.323172,20.335367,2
15:17:38.451,-0.007080,-0.318604,1.005371,8.231708,5.487805,9.817074,2
15:17:38.625,-0.184570,0.019287,1.028564,6.981708,3.932927,-21.829269,2
15:17:38.722,-0.142334,-0.112061,1.067627,14.085366,-7.896342,-11.402439,2
15:17:38.881,-0.025391,-0.157471,0.897217,51.006100,15.426829,-17.621952,2
15:17:38.976,-0.095703,0.068115,1.058105,-6.585366,-13.810976,-3.841464,2
15:17:39.108,0.153320,-0.219971,0.883545,0.670732,18.902439,-9.268293,2
15:17:39.288,-0.037109,-0.113281,0.998779,5.030488,2.500000,-3.475610,2
15:17:39.374,-0.273926,-0.057373,0.966797,1.890244,8.780488,-0.365854,2
15:17:39.539,-0.167236,-0.126221,1.001221,2.164634,-8.018292,5.823171,2
15:17:39.675,0.009277,-0.187988,0.893311,8.719512,-7.835366,2.835366,2
15:17:39.777,0.006836,-0.047607,1.093262,-19.512196,-5.274390,-5.884147,2
15:17:39.910,0.177734,-0.111572,0.974365,-11.432927,9.725610,-25.548780,2
15:17:40.066,-0.158936,-0.101562,0.979004,7.012195,7.774390,3.140244,2
15:17:40.150,-0.144531,-0.162354,1.039551,-0.487805,-2.286585,18.109756,2
15:17:40.296,-0.036133,-0.136719,0.930420,6.097561,-2.469512,11.920732,2
15:17:40.468,0.195068,0.114990,1.408936,-5.121951,-2.682927,-1.493902,2
15:17:40.536,0.022461,-0.062744,1.098145,-2.073171,9.298780,3.567073,2
15:17:40.684,0.036377,-0.237793,1.048828,-4.420732,8.780488,-2.987805,2
15:17:40.841,-0.089111,-0.111572,0.988525,11.402439,2.164634,-5.152439,2
15:17:40.930,-0.168457,-0.053467,1.002441,0.914634,-5.670732,-7.378049,2
15:17:41.084,-0.129883,-0.139404,0.938232,-27.804878,-6.036585,20.304878,2
15:17:41.203,0.502441,-0.383545,1.613770,-29.756098,5.579268,4.085366,2
15:17:41.320,-0.018555,-0.083984,0.892334,-13.810976,14.878049,0.579268,2
15:17:41.469,-0.108643,-0.216553,0.935547,-0.609756,20.487804,-0.335366,2
15:17:41.581,-0.155518,-0.169434,0.955322,-0.884146,1.371951,-0.731707,2
15:17:41.720,-0.114014,-0.223633,0.969727,0.091463,-0.213415,-1.036585,2
15:20:08.189,-0.158691,-0.207275,1.116455,15.243903,-15.548780,-9.420732,3
15:20:08.315,-0.042236,-0.194336,1.057861,-0.823171,-13.323171,13.262196,3
15:20:08.447,-0.152588,0.050049,0.904297,2.439024,6.585366,-5.579268,3
15:20:08.583,-0.178223,0.057861,1.031982,11.463415,9.115854,-25.304878,3
15:20:08.717,-0.171631,-0.072754,0.985107,-1.829268,1.219512,16.920732,3
15:20:08.854,-0.179688,0.080078,1.021240,4.481708,-1.006098,5.457317,3
15:20:08.987,-0.176025,-0.272461,0.860107,7.225610,8.292683,37.134148,3
15:20:09.094,-0.291748,0.108643,0.865479,7.256098,-1.189024,-24.207317,3
15:20:09.224,-0.154053,0.081543,1.030762,14.298780,-3.414634,-38.079269,3
15:20:09.356,-0.198486,-0.052979,0.930176,-7.256098,2.012195,27.530489,3
15:20:09.496,-0.033936,-0.148193,1.141602,2.530488,-14.268293,-3.536585,3
15:20:09.633,0.032471,-0.284912,1.041260,11.463415,1.432927,11.707317,3
15:20:09.765,-0.354004,0.221191,0.904053,9.847561,8.292683,-23.689026,3
15:20:09.880,-0.154053,-0.034180,1.035400,5.975610,-14.634147,-10.426829,3
15:20:10.011,-0.096680,-0.069092,0.921631,-27.347561,-5.091464,-5.091464,3
15:20:10.143,-0.043701,-0.196533,1.115967,16.432928,1.158537,-5.426829,3
15:20:10.318,0.185791,-0.336426,1.069580,15.701220,6.006098,-10.548780,3
15:20:10.418,-0.368164,-0.022949,0.945557,13.170732,5.304878,-9.542684,3
15:20:10.541,-0.239990,-0.078369,1.008057,7.256098,-11.920732,1.067073,3
15:20:10.708,-0.117188,-0.077393,0.942139,-14.939025,-1.371951,21.310976,3
15:20:10.815,-0.316650,0.034668,1.050293,-1.310976,-17.713415,-6.280488,3
15:20:10.930,0.173584,-0.186035,1.069824,10.853659,22.987806,-9.664635,3
15:20:11.097,-0.266357,0.014893,0.851074,5.030488,1.615854,-4.451220,3
15:20:11.179,-0.311035,0.001221,1.086670,10.182927,-8.109756,-12.225610,3
15:20:11.310,-0.173340,-0.035889,0.913330,16.768293,-25.396341,-8.719512,3
15:20:11.496,0.116211,-0.015869,0.890137,-0.487805,-9.664635,1.402439,3
15:20:11.576,-0.130127,-0.105225,0.981689,-11.798780,30.701220,18.841463,3
15:20:11.710,-0.068848,-0.098877,1.040039,-1.402439,1.006098,5.243903,3
15:20:11.839,-0.352295,0.178223,0.985840,4.054878,1.250000,-14.695123,3
15:20:11.980,-0.188477,-0.050049,0.947021,13.689025,-28.689026,-17.256098,3
15:20:12.109,0.055664,-0.095703,0.864014,-13.414635,-8.841464,4.664634,3
15:20:12.216,-0.087646,-0.144287,1.105469,-20.579269,29.024391,39.878048,3
15:20:12.420,-0.097412,-0.298340,1.034912,4.878049,7.591464,1.280488,3
15:20:12.480,-0.347656,0.311279,0.947510,-5.060976,8.414635,-31.615854,3
15:20:12.626,-0.229980,-0.100830,0.979004,14.146341,-28.780489,-19.207317,3
15:20:12.754,-0.048828,-0.186523,0.815430,-14.146341,-10.945122,4.817073,3
15:20:12.896,-0.089600,-0.055908,1.142822,-22.926830,19.939024,42.652439,3
15:20:13.025,0.118652,-0.323975,1.130859,11.890244,-1.371951,-0.548781,3
15:20:13.137,-0.338623,0.026123,0.940430,13.993903,4.817073,-18.140244,3
15:20:13.279,-0.277344,-0.036865,1.057373,17.042683,-14.329268,-20.152439,3
15:20:13.457,-0.043213,-0.109375,0.922607,10.731708,17.926830,44.817074,3
15:20:13.529,0.066406,-0.327393,1.324707,1.920732,-10.579268,7.317073,3
15:20:13.680,-0.076660,-0.165039,1.113525,3.231707,1.676829,27.134148,3
15:20:13.794,-0.213379,0.056885,0.826416,-4.786585,-2.682927,-16.890244,3
15:20:13.949,0.006592,0.124512,1.103271,9.908537,5.365854,-25.121952,3
15:20:14.035,-0.177246,-0.090088,0.909912,-41.341465,-10.274390,42.652439,3
15:20:14.188,-0.118408,-0.155029,1.154053,-10.579268,-6.615854,3.353659,3
15:20:14.316,-0.203369,-0.154785,1.000977,13.536586,22.073172,10.000000,3
15:20:14.463,-0.201416,-0.100830,0.918457,13.140244,-1.646342,-10.243902,3
15:20:14.600,-0.037598,0.127930,1.057861,9.817074,3.628049,-23.536587,3
15:20:14.746,-0.112549,-0.072754,0.964844,-42.743904,-2.652439,15.426829,3
15:20:14.819,-0.253662,0.293457,1.035889,-12.317074,-2.073171,-3.841464,3
15:20:14.955,-0.119873,-0.175781,1.035645,1.128049,22.439026,17.652439,3
15:20:15.129,-0.165283,-0.155029,0.965820,2.865854,-2.286585,-2.530488,3
15:20:15.224,-0.020020,0.090088,1.099365,12.195122,7.103659,-27.378050,3
15:20:15.373,-0.103027,-0.047852,0.953369,-38.567074,-14.054878,33.597561,3
15:20:15.489,-0.171387,-0.157959,1.194336,-5.121951,-4.146341,-0.457317,3
15:20:15.669,-0.118652,-0.064941,1.007324,-19.268293,13.871951,30.609756,3
15:20:15.731,0.007812,-0.355225,1.074707,12.195122,8.658537,11.310976,3
15:20:15.873,-0.228027,0.219482,1.001465,11.463415,-4.298780,-27.896341,3
15:20:16.048,-0.100830,-0.041992,1.010254,26.067074,-9.878049,-12.012196,3
15:20:16.130,0.082275,0.054932,1.134033,-11.341464,-1.006098,-7.743903,3
15:20:16.267,-0.092529,-0.028076,1.047119,3.871951,33.567074,21.859756,3
15:20:16.455,-0.043457,-0.144531,0.973633,2.957317,-4.054878,-4.481708,3
15:20:16.505,-0.257812,0.210205,0.981689,3.932927,5.030488,-25.091463,3
15:20:16.657,-0.177490,0.053467,0.913818,-11.036586,-28.353659,5.457317,3
15:20:16.794,0.090332,0.050781,1.315918,17.103659,-5.365854,0.518293,3
15:20:16.945,0.031250,-0.103027,1.118652,-13.567074,26.006098,10.365854,3
15:20:17.068,0.008301,-0.076172,1.066406,10.121951,6.067073,-4.847561,3
15:20:17.209,-0.308594,0.125244,0.948975,-0.518293,-0.030488,-4.146341,3
15:20:17.334,-0.166992,0.003418,0.994629,-26.371952,-18.262196,0.457317,3
15:20:17.497,-0.011475,-0.055908,0.927002,-18.262196,-1.707317,-9.664635,3
15:20:17.556,-0.011963,-0.235107,1.054199,9.969512,-6.402439,-5.426829,3
15:20:17.688,0.198486,-0.254395,1.002930,-8.871951,14.451220,31.067074,3
15:20:17.875,-0.333252,0.100098,0.927734,2.164634,6.067073,-26.067074,3
15:20:17.953,-0.199707,-0.039307,1.031738,33.353661,-19.146341,-23.323172,3
15:20:18.097,-0.072266,-0.110107,0.847168,-3.902439,14.603659,-13.079268,3
15:20:18.270,-0.239258,0.094482,1.040039,-7.134147,1.981707,6.737805,3
15:20:18.338,0.221191,-0.013672,1.067383,-0.914634,-0.091463,7.500000,3
15:20:18.470,-0.254883,0.096924,0.892822,2.560976,9.634147,-13.750000,3
15:20:18.647,-0.175537,-0.003174,1.067627,13.536586,-10.518293,-26.554878,3
15:20:18.744,-0.008545,-0.129883,0.946777,5.609756,4.603659,4.207317,3
15:20:18.872,-0.173340,-0.009277,1.007080,10.701220,-7.469512,-1.920732,3
15:20:19.046,0.220947,-0.270264,0.941895,-1.432927,25.000000,11.829268,3
15:20:19.119,-0.221436,0.072510,0.927734,7.530488,-3.201220,-1.676829,3
15:20:19.252,-0.279053,0.093994,1.017090,5.579268,-5.945122,-18.475611,3
15:20:19.433,-0.178223,0.012451,0.906982,-28.993902,-18.658537,47.774391,3
15:20:19.509,0.275391,-0.636963,1.389160,-2.164634,-9.085366,-7.621952,3
15:20:19.645,0.121582,-0.126709,0.914795,1.280488,17.652439,-6.219512,3
15:20:19.831,-0.116699,0.029785,0.924072,0.823171,-5.884147,-8.140244,3
15:20:19.889,-0.283691,0.041504,1.000244,0.548781,-1.463415,-4.847561,3
15:20:20.022,-0.231934,-0.002686,0.933105,6.128049,-28.323172,2.042683,3
15:20:20.230,0.149414,0.035400,1.103027,19.573172,-12.560976,5.487805,3
15:20:20.312,0.027100,-0.047852,1.008301,-18.963415,26.646341,12.713415,3
15:20:20.463,-0.020264,-0.038574,0.987549,0.000000,3.384146,4.817073,3
15:20:20.617,-0.329834,0.057617,1.002441,10.457317,3.292683,-16.250000,3
15:20:20.671,-0.192139,0.031982,1.046143,12.560976,-8.140244,-14.878049,3
15:20:20.821,-0.098389,0.051025,0.908936,-23.170732,-18.323172,57.652439,3
15:20:20.998,0.347168,-0.607666,1.323486,-13.323171,-14.847561,-11.890244,3
15:20:21.081,0.077881,0.052246,0.901611,-10.121951,17.957317,1.432927,3
15:20:21.229,-0.026855,-0.081055,0.973389,0.670732,0.396341,-3.475610,3
15:20:21.376,-0.332764,0.099854,1.073242,5.000000,1.981707,-8.689025,3
15:20:21.466,-0.123779,0.004150,0.941162,7.896342,-30.121952,-14.207317,3
15:20:21.625,0.103516,-0.070068,0.850098,-17.012196,-6.158537,-2.804878,3
15:20:21.730,0.043701,-0.100830,1.048096,-3.292683,30.426830,-0.640244,3
15:20:21.864,0.033936,-0.108887,1.033936,6.707317,8.719512,-6.310976,3
15:20:22.038,-0.230225,0.045410,1.101318,8.780488,6.768293,-4.146341,3
15:20:22.129,-0.170410,-0.049072,0.961182,4.969512,-16.768293,0.396341,3
15:20:22.271,-0.006104,-0.044189,0.942383,32.195122,10.701220,30.548780,3
15:20:22.405,-0.336426,0.389404,1.024902,-0.091463,2.682927,-2.225610,3
15:20:22.500,0.318848,-0.004150,1.111572,-3.475610,16.432928,19.085367,3
15:20:22.637,-0.244385,0.087646,0.979004,7.591464,3.384146,-8.902439,3
15:20:22.822,-0.193359,0.048828,1.052002,2.774390,-16.676830,-18.414635,3
15:20:22.917,-0.075195,-0.001465,0.950195,4.359756,-6.646342,28.262196,3
15:20:23.048,0.364990,-0.410889,1.208252,-4.420732,-6.341464,-1.432927,3
15:20:23.178,-0.012939,-0.008789,0.947998,10.731708,26.646341,5.457317,3
15:20:23.330,-0.191650,0.079590,0.929199,4.390244,1.920732,-20.335367,3
15:20:23.430,-0.088379,0.165527,1.109375,-1.371951,-3.414634,-13.719513,3
15:20:23.553,-0.085449,-0.029297,0.952393,-0.762195,3.506098,13.963415,3
15:20:23.739,0.168457,-0.165283,1.232422,-0.304878,-5.396342,3.201220,3
15:20:23.819,-0.054199,-0.047119,0.986816,0.396341,36.128048,17.530489,3
15:20:23.927,-0.104248,0.002441,1.005371,-5.243903,-7.286585,9.847561,3
15:20:24.139,-0.224854,0.137695,0.937256,19.176830,0.060976,-15.975610,3
15:20:24.190,-0.150391,0.142334,1.072021,17.926830,-1.463415,-34.878048,3
15:20:24.349,-0.118652,-0.008545,0.899658,10.121951,15.853659,-8.780488,3
15:20:24.527,-0.021484,0.077393,1.054932,11.951220,-5.274390,-2.408537,3
15:20:24.603,0.060303,-0.144531,1.051758,-6.646342,23.810976,27.926830,3
15:20:24.711,-0.195068,0.080078,0.927979,4.085366,-4.237805,-15.335366,3
15:20:24.918,-0.004883,0.098877,1.081787,1.951220,0.243902,-26.554878,3
15:20:24.976,-0.187500,0.126221,0.874512,-27.225611,-13.628049,11.128049,3
15:20:25.130,0.073730,-0.051514,1.407471,6.615854,4.085366,1.310976,3
15:20:25.307,-0.029541,-0.047119,1.104736,-7.774390,9.176829,20.670732,3
15:20:25.390,-0.068604,-0.135010,1.046143,0.731707,2.347561,-2.652439,3
15:20:25.499,-0.029785,0.163574,1.001709,-2.164634,1.036585,-24.085367,3
15:20:25.707,-0.098389,0.037598,0.947021,-46.067074,-17.378050,33.475609,3
15:20:25.764,0.061279,-0.359131,1.167969,-3.567073,1.737805,7.560976,3
15:20:25.894,-0.117676,-0.073242,1.031982,0.060976,15.853659,23.292683,3
15:20:26.087,-0.077393,-0.070557,1.052490,8.445122,-5.853659,6.158537,3
15:20:26.163,0.021973,0.180908,1.042969,1.829268,7.865854,-25.792683,3
15:20:26.277,-0.046143,-0.009766,1.006836,11.097561,-22.225611,-17.743902,3
15:20:26.504,-0.089111,0.037598,0.865723,-2.804878,-1.951220,1.341463,3
15:20:26.542,-0.044434,-0.147461,1.051270,-13.719513,12.743903,36.097561,3
15:20:26.684,-0.026367,-0.266846,1.116211,6.768293,1.554878,14.329268,3
15:20:26.810,-0.152832,0.136719,0.936279,-4.603659,12.012196,-16.036585,3
15:20:26.997,-0.100342,0.060059,1.094971,23.353659,-6.859756,-43.140244,3
15:20:27.080,-0.132080,-0.065186,0.843018,-22.560976,-12.621951,-0.365854,3
15:20:27.228,-0.088867,-0.245850,0.902832,17.621952,-3.597561,1.341463,3
15:20:27.353,0.254150,-0.076416,1.075684,6.737805,3.048780,6.189024,3
15:20:27.464,-0.232666,0.125000,0.978516,1.920732,12.896341,-14.024390,3
15:20:27.585,-0.160156,-0.035156,1.028809,7.073171,-19.420732,-13.170732,3
15:20:27.758,-0.096924,-0.117188,0.849365,16.006098,8.323171,6.981708,3
15:20:27.867,-0.194824,-0.060547,1.101807,-13.567074,5.579268,-2.378049,3
15:20:28.011,0.267822,-0.025146,1.044434,-2.317073,7.652439,-5.426829,3
15:20:28.140,-0.179688,0.063965,0.990723,-2.042683,9.420732,-10.884147,3
15:20:28.277,-0.151855,-0.020264,1.076416,8.445122,-15.000000,-5.670732,3
15:20:28.393,-0.040527,-0.030518,0.826904,34.207317,16.951220,11.128049,3
15:20:28.518,-0.217773,0.322510,1.103271,15.091464,-16.432928,-5.792683,3
15:20:28.633,0.267334,0.102539,0.835938,-8.932927,12.530488,-2.469512,3
15:20:28.774,-0.130859,0.068115,0.943359,-3.475610,4.634147,-9.847561,3
15:20:28.950,-0.250000,0.230469,1.080811,-17.164635,-10.792684,-9.329268,3
15:20:29.037,-0.041016,-0.034180,0.921631,-33.170731,-8.201220,13.871951,3
15:20:29.164,0.372559,0.141113,1.554932,-10.426829,-13.170732,-2.256098,3
15:20:29.311,0.153320,0.015137,0.946045,2.804878,32.134148,16.310976,3
15:20:29.476,0.001953,-0.025146,1.067139,-1.310976,-7.926829,-0.396341,3
15:20:29.558,-0.311523,0.105469,1.047119,14.817074,5.121951,-19.908537,3
15:20:29.676,-0.128662,0.004639,0.938721,31.798780,-37.134148,-4.908537,3
15:20:29.853,0.168945,0.292236,1.045410,9.481708,-13.993903,8.262196,3
15:20:29.918,0.169678,-0.105469,0.997070,-18.231709,27.256098,38.018295,3
15:20:30.050,-0.224121,0.047607,0.872803,-0.548781,-11.463415,3.536585,3
15:20:30.217,-0.177246,0.191650,1.082520,5.548780,3.353659,-30.304878,3
15:20:30.316,-0.101562,-0.043701,0.947021,-6.646342,-54.451221,-2.408537,3
15:20:30.474,0.249023,0.236328,1.403076,-3.079268,-6.067073,-3.231707,3
15:20:30.641,0.144043,-0.119141,0.962402,34.085365,46.158539,13.597561,3
15:20:30.716,-0.125244,0.048584,0.990479,-7.408537,-11.829268,2.682927,3
15:20:30.866,-0.290771,0.081787,1.010254,1.493902,6.463415,-6.829268,3
15:20:30.978,-0.271973,0.081787,0.985840,4.573171,-22.225611,-21.981709,3
15:20:31.110,-0.000488,-0.036865,0.865234,-19.359756,-1.310976,25.823172,3
15:20:31.287,-0.118408,-0.020508,0.993164,-17.317074,-7.347561,-8.262196,3
15:20:31.354,0.292969,-0.211426,0.927002,-0.152439,23.780489,-4.085366,3
15:20:31.505,-0.110107,-0.007080,0.972656,3.445122,-13.445123,-9.786586,3
15:20:31.680,-0.221924,0.034180,1.144043,2.378049,6.737805,-9.878049,3
15:20:31.760,-0.148682,-0.028564,0.980225,0.457317,-35.762196,-1.524390,3
15:20:31.899,0.007568,-0.260010,0.744629,-5.030488,-15.274390,-10.060976,3
15:20:32.087,0.225586,-0.146973,1.197754,2.012195,37.408539,2.835366,3
15:20:32.143,0.132080,-0.152100,1.041992,3.689024,0.731707,-1.310976,3
15:20:32.289,-0.227783,0.034912,1.060059,6.432927,2.713415,-5.579268,3
15:20:32.426,-0.137695,-0.052490,1.026855,7.134147,-24.024391,-5.609756,3
15:20:32.525,-0.024170,-0.052246,0.756104,0.091463,-9.481708,6.432927,3
15:20:32.671,0.108398,-0.024658,1.069824,-21.768293,20.000000,28.353659,3
15:20:32.850,0.203613,-0.280762,1.085205,6.646342,11.371951,6.310976,3
15:20:32.933,-0.173340,-0.022461,1.013916,4.573171,1.920732,-10.701220,3
15:20:33.087,-0.161377,0.045166,1.029297,12.652439,-10.365854,-26.463415,3
15:20:33.206,-0.033936,-0.034668,0.883057,34.420734,19.146341,-17.713415,3
15:20:33.309,0.231445,-0.410889,1.195312,13.597561,5.274390,2.804878,3
15:20:33.441,0.045898,-0.243652,0.817871,-3.597561,11.585366,7.621952,3
15:20:33.640,-0.100830,0.156982,0.965820,-6.859756,13.871951,-13.323171,3
15:20:33.724,0.035645,0.067871,1.057861,0.609756,-15.457317,-16.036585,3
15:20:33.839,-0.078857,-0.083252,0.888916,-49.908539,-11.189025,-5.304878,3
15:20:34.027,0.001709,-0.175293,1.066406,7.865854,3.292683,7.469512,3
15:20:34.104,0.014893,-0.283203,0.930664,3.262195,4.695122,21.402439,3
15:20:34.239,-0.066650,-0.026367,0.975098,7.134147,4.847561,-7.317073,3
15:20:34.405,-0.006836,0.111328,1.060059,19.908537,4.695122,-29.207317,3
15:20:34.491,-0.063721,-0.079346,0.902832,-20.426830,-3.140244,23.993902,3
15:20:34.624,-0.231201,-0.112305,0.957520,-19.847561,-2.408537,-0.121951,3
15:20:34.798,0.098389,-0.287598,0.925049,-6.371952,15.213415,28.201220,3
15:20:34.869,-0.153564,-0.056885,0.976807,5.670732,-2.987805,-4.176829,3
15:20:35.000,-0.067139,0.046875,1.035156,6.158537,5.670732,-32.865856,3
15:20:35.184,-0.054932,0.007080,0.974854,-74.969513,-23.902439,36.859756,3
15:20:35.269,-0.079346,-0.151367,1.586426,-19.298780,0.121951,-1.493902,3
15:20:35.415,0.039795,-0.221680,0.967285,8.048780,17.774391,30.731709,3
15:20:35.589,-0.057617,-0.075928,1.024658,5.609756,14.908537,14.939025,3
15:20:35.648,-0.156250,0.086914,0.988281,8.292683,-13.353659,-2.103659,3
15:20:35.781,-0.150391,0.085449,1.048096,8.689025,-1.189024,-47.469513,3
15:20:35.970,-0.146240,0.019287,0.849609,-40.243904,-2.621951,46.371952,3
15:20:36.076,0.420898,-0.656494,1.291016,9.725610,-10.945122,2.347561,3
15:20:36.190,0.088379,-0.151123,0.915039,2.225610,20.243902,26.920732,3
15:20:36.370,-0.142578,-0.007812,0.938477,7.164634,-1.951220,-21.189024,3
15:20:36.429,-0.149170,0.036865,1.052002,10.426829,-8.597561,-21.676830,3
15:20:36.561,-0.134766,0.049072,0.897949,-21.371952,-7.804878,21.219513,3
15:20:36.744,0.283691,-0.458008,1.318604,-23.506098,-1.737805,1.463415,3
15:20:36.830,0.041992,-0.114502,0.976074,-2.865854,34.603661,8.597561,3
15:20:36.973,-0.061768,-0.080811,1.002441,10.000000,-6.798780,1.402439,3
15:20:37.145,-0.279297,0.165283,1.023682,0.762195,2.682927,-12.621951,3
15:20:37.205,-0.166748,-0.050293,0.965576,0.182927,-30.426830,-1.493902,3
15:20:37.405,0.220215,0.178711,1.323975,1.280488,-3.384146,4.603659,3
15:20:37.506,0.035645,0.029785,0.995117,-6.341464,28.292683,1.280488,3
15:20:37.668,0.038818,-0.067383,1.047119,1.585366,4.176829,-4.085366,3
15:20:37.749,-0.273193,0.076904,1.015137,-1.920732,8.201220,-2.835366,3
15:20:37.905,-0.193115,-0.033203,0.985840,-1.250000,-16.432928,-7.042683,3
15:20:37.997,-0.047852,-0.084961,0.884521,13.506098,-7.286585,12.012196,3
15:20:38.154,-0.010254,-0.215332,0.937500,-0.304878,7.195122,-8.597561,3
15:20:38.265,0.399658,-0.224854,1.089844,-4.695122,17.347561,-2.865854,3
15:20:38.470,-0.126221,0.065674,0.998779,-0.518293,-2.012195,-4.847561,3
15:20:38.522,-0.282959,-0.095947,1.137939,16.768293,0.304878,-11.554878,3
15:20:38.658,-0.034180,-0.127197,0.937988,34.847561,-38.048782,-2.317073,3
15:20:38.827,0.130127,0.005371,0.901123,3.353659,-7.804878,10.731708,3
15:20:38.931,0.097900,0.032959,0.933350,-2.408537,29.115854,8.353659,3
15:20:39.054,0.010254,0.016113,0.979004,-11.067074,0.243902,10.304878,3
15:20:39.181,-0.328125,0.011230,1.016846,7.743903,2.560976,-12.987805,3
15:20:39.342,-0.132324,-0.082764,0.999756,15.487805,-10.731708,-8.384147,3
15:20:39.479,0.033691,-0.045898,0.906494,-32.439026,-5.487805,20.213415,3
15:20:39.550,0.301025,-0.650391,1.322754,-3.780488,-12.621951,2.012195,3
15:20:39.726,0.162598,-0.123779,0.880127,-6.280488,21.737806,16.341463,3
15:20:39.833,-0.247070,0.010254,0.909912,1.646342,7.012195,-11.798780,3
15:20:40.018,-0.149658,0.045166,1.113770,9.939025,-7.469512,-22.042683,3
15:20:40.094,-0.102051,0.036865,0.851074,-3.963415,-7.621952,39.237804,3
15:20:40.240,0.443359,-0.516357,1.304688,-45.609756,-4.054878,-2.896342,3
15:20:40.381,0.039307,-0.078613,0.930176,14.146341,22.957317,14.878049,3
15:20:40.491,-0.152832,-0.035645,0.942627,9.542684,-2.286585,-8.963415,3
15:20:40.600,-0.059082,0.059326,1.107666,7.286585,-3.323171,-21.158537,3
15:20:40.788,-0.107666,-0.011963,0.862793,39.146343,14.725610,-9.176829,3
15:20:40.877,0.191406,-0.171631,1.246582,-13.567074,0.670732,4.024390,3
15:20:41.022,0.051514,-0.160156,0.911133,-1.920732,10.335366,6.036585,3
15:20:41.175,-0.084473,0.088623,0.927490,-1.829268,5.304878,-15.457317,3
15:20:41.268,0.060059,0.070801,1.101562,0.304878,-3.871951,-14.634147,3
15:20:41.378,-0.097900,-0.089600,0.827881,11.493903,-3.810976,4.908537,3
15:20:41.544,-0.078125,-0.096191,1.093506,28.567074,1.859756,-7.378049,3
15:20:41.658,0.100098,0.094238,0.895508,-35.121952,12.591464,24.725611,3
15:20:41.790,-0.086182,0.151855,0.967529,6.250000,3.262195,-16.158537,3
15:20:41.963,0.113037,0.206787,1.062744,-2.408537,-5.396342,-22.743902,3
15:20:42.037,-0.072021,-0.039795,0.865967,-17.286585,9.847561,10.548780,3
15:20:42.169,-0.199707,0.037598,1.005859,-11.341464,-4.573171,12.317074,3
15:20:42.369,0.085693,-0.175293,0.852539,-12.713415,11.859756,32.225609,3
15:20:42.421,-0.130615,0.000244,0.987793,10.945122,2.591464,-8.262196,3
15:20:42.571,-0.057129,0.098633,1.053955,2.103659,-2.774390,-35.152439,3
15:20:42.748,-0.072510,0.039307,0.916504,0.182927,8.353659,-4.298780,3
15:20:42.837,-0.117920,-0.037109,0.880127,3.384146,-5.731708,9.878049,3
15:20:42.969,0.014404,-0.252441,0.910156,12.469513,28.871952,24.298780,3
15:20:43.146,-0.037842,-0.202637,0.982178,16.707317,-2.103659,8.109756,3
15:20:43.200,-0.143066,0.175049,1.036865,2.042683,0.487805,-31.463415,3
15:20:43.333,-0.083496,0.013184,0.997070,-24.298780,-22.103659,8.231708,3
15:20:43.507,0.261963,0.060547,1.417480,-13.323171,-3.262195,1.859756,3
15:20:43.598,0.077393,-0.049805,1.002686,-2.439024,32.987804,21.310976,3
15:20:43.750,0.068115,-0.212891,1.017090,22.256098,6.341464,7.530488,3
15:20:43.900,-0.222900,0.161621,1.015137,8.292683,0.731707,-19.481709,3
15:20:44.013,-0.146240,0.027100,1.027100,6.585366,-15.243903,-15.182927,3
15:20:44.140,0.010254,-0.082031,0.903809,-4.359756,12.286586,9.481708,3
15:20:44.251,0.220703,-0.389160,1.114746,-15.945123,-8.323171,-7.195122,3
15:20:44.390,0.206055,-0.191650,0.822510,1.798781,22.286587,12.774390,3
15:20:44.569,-0.101807,0.029785,0.941895,-9.634147,-2.713415,-4.756098,3
15:20:44.653,-0.191650,0.118164,1.129395,5.640244,-9.908537,-28.231709,3
15:20:44.815,-0.053223,-0.104492,0.919189,-5.609756,-8.567074,18.201220,3
15:20:44.938,0.435547,-0.355225,1.547852,-10.426829,-8.323171,0.548781,3
15:20:45.030,0.103271,-0.022217,0.861084,-12.713415,30.487806,20.792683,3
15:20:45.170,-0.025635,-0.067627,1.013916,4.024390,-0.762195,-10.640244,3
15:20:45.347,-0.106934,0.097656,1.060303,-3.018293,-1.615854,-21.524391,3
15:20:45.414,-0.077148,0.004639,0.907959,-37.500000,-18.323172,18.719513,3
15:20:45.575,0.176758,0.301514,1.508789,-1.189024,-0.548781,7.439024,3
15:20:45.710,0.051758,0.155762,0.967285,-5.365854,23.323172,6.554878,3
15:20:45.822,-0.028076,-0.166504,0.995850,10.640244,0.243902,-8.414635,3
15:20:45.959,0.081543,0.145996,1.079834,-4.359756,7.378049,-20.152439,3
15:20:46.118,-0.011475,-0.050537,0.980225,8.475610,-25.060976,22.073172,3
15:20:46.207,0.147217,-0.044678,1.403076,-9.847561,-7.042683,2.286585,3
15:20:46.347,0.154297,-0.086670,0.884033,-1.371951,25.518293,2.682927,3
15:20:46.515,-0.023682,-0.010498,0.957031,-0.396341,-1.432927,-3.323171,3
15:20:46.617,-0.126709,0.000977,1.044678,4.664634,0.121951,-4.664634,3
15:20:46.742,-0.080078,-0.034668,0.968506,-10.518293,-27.530489,5.213415,3
15:20:46.916,0.209961,0.170410,1.295166,-3.932927,-3.780488,-0.335366,3
15:20:46.999,0.135986,0.075195,1.034668,-16.036585,37.987804,-3.018293,3
15:20:47.122,0.122559,-0.045898,0.941162,8.932927,-0.182927,2.408537,3
15:20:47.298,-0.369873,-0.008301,1.063477,5.091464,4.664634,-4.481708,3
15:20:47.380,-0.110107,-0.047363,1.011230,10.579268,-19.878050,-7.012195,3
15:20:47.550,0.048828,-0.049072,0.830078,12.713415,3.262195,12.621951,3
15:20:47.639,-0.167480,0.042236,0.916260,-52.164635,13.780488,11.859756,3
15:20:47.780,0.390381,-0.419678,1.081543,35.823170,15.365854,13.048780,3
15:20:47.956,-0.157471,0.053223,0.972656,-0.884146,3.292683,-13.475610,3
15:20:48.019,-0.234131,0.120361,1.086426,8.780488,-11.371951,-19.512196,3
15:20:48.153,-0.027588,-0.091309,0.941895,-42.073174,-25.884148,24.329269,3
15:20:48.329,0.426514,0.239014,1.660156,-5.030488,-11.158537,-10.213415,3
15:20:48.425,0.181396,-0.018555,1.001465,-8.353659,29.634148,25.823172,3
15:20:48.584,-0.063232,0.024658,1.004883,-4.908537,7.804878,-6.859756,3
15:20:48.680,-0.133545,0.057373,1.125488,5.792683,10.030488,-9.969512,3
15:20:48.813,-0.133545,0.016602,0.956543,19.725611,-24.695122,-19.451220,3
15:20:48.996,0.023438,-0.029053,0.712646,-10.579268,-14.725610,0.731707,3
15:20:49.077,0.093262,0.030762,1.067139,-10.731708,10.396341,9.725610,3
15:20:49.190,0.175049,-0.140381,1.078857,7.042683,9.237805,7.774390,3
15:20:49.400,-0.139160,0.111572,1.037354,7.774390,4.634147,-17.134148,3
15:20:49.470,-0.084473,0.010010,0.938721,-10.975610,-27.408537,2.073171,3
15:20:49.621,0.213135,0.208008,1.451904,28.140245,-5.518293,8.018292,3
15:20:49.727,0.101807,0.032959,1.204834,-3.750000,16.371952,12.682927,3
15:20:49.859,-0.019043,0.043213,1.022217,5.609756,3.445122,6.951220,3
15:20:50.028,0.019775,0.170410,1.027832,-4.085366,5.731708,-13.780488,3
15:20:50.119,0.055908,0.134033,0.975342,-19.786587,-16.646341,10.518293,3
15:20:50.267,-0.056396,0.170898,1.219971,-13.536586,2.103659,-4.817073,3
15:20:50.400,0.072021,-0.013184,1.137451,1.341463,11.158537,9.237805,3
15:20:50.510,0.003174,-0.096924,1.014160,6.737805,0.792683,9.481708,3
15:20:50.652,0.021240,0.120361,1.019531,3.871951,5.487805,-21.493902,3
15:20:50.783,0.053955,0.076172,1.020996,9.878049,-13.048780,-22.134148,3
15:20:50.948,-0.087402,-0.178223,0.799561,-15.274390,0.518293,4.756098,3
15:20:51.026,-0.013916,0.065186,1.081543,-9.176829,-0.457317,7.042683,3
15:20:51.171,0.085205,-0.237305,0.853516,9.237805,1.981707,22.195122,3
15:20:51.318,-0.088379,0.014404,0.944336,12.073171,6.310976,-18.353659,3
15:20:51.429,-0.007080,0.074951,1.039795,15.792684,-1.524390,-35.792683,3
15:20:51.558,-0.032715,-0.010254,0.861572,-0.426829,10.121951,3.079268,3
15:20:51.681,-0.132568,0.096191,0.986572,8.597561,3.353659,5.152439,3
15:20:51.833,0.265137,-0.056152,0.937500,2.164634,4.390244,27.103659,3
15:20:51.998,-0.124023,-0.143799,0.985352,22.073172,4.390244,-8.993902,3
15:20:52.064,-0.069336,0.084961,1.015869,3.750000,-0.304878,-31.250000,3
15:20:52.209,-0.092041,0.074951,0.970459,11.036586,-43.750000,-7.195122,3
15:20:52.351,0.258789,0.029541,0.947510,3.140244,-6.280488,6.859756,3
15:20:52.465,0.107178,0.120361,1.103027,0.030488,26.128050,21.067074,3
15:20:52.618,0.031982,-0.112793,1.028809,7.500000,9.176829,2.042683,3
15:20:52.756,-0.151123,0.213867,1.011719,6.250000,4.176829,-17.073172,3
15:20:52.849,-0.084961,0.116455,0.936523,1.128049,-40.365856,-5.304878,3
15:20:52.981,0.096436,-0.115479,0.736084,-7.804878,-5.426829,-0.060976,3
15:20:53.157,0.082275,0.000000,0.994873,-36.310978,18.780489,18.201220,3
15:20:53.231,0.281250,-0.253174,1.077881,11.737805,7.591464,11.219513,3
15:20:53.383,-0.149414,0.137939,0.983154,3.292683,2.591464,-13.993903,3
15:20:53.497,-0.072510,0.033936,1.109375,11.829268,-8.475610,-30.487806,3
15:20:53.646,0.009277,0.082275,0.817383,-36.951221,9.908537,8.689025,3
15:20:53.781,-0.144287,-0.031738,0.897949,9.786586,-3.231707,-1.737805,3
15:20:53.928,0.239258,-0.218018,0.896240,1.920732,18.140244,-5.091464,3
15:20:54.016,-0.017334,-0.080078,1.018799,6.615854,-0.396341,-4.908537,3
15:20:54.157,-0.145264,-0.056885,0.998291,4.847561,-5.182927,2.926829,3
15:20:54.328,-0.047119,-0.074951,0.915527,11.158537,-18.658537,2.743902,3
15:20:54.418,0.153809,-0.041016,1.140625,8.292683,-9.969512,5.457317,3
15:20:54.550,0.126221,-0.017822,0.974609,2.652439,26.158537,8.323171,3
15:20:54.709,0.015381,-0.077393,0.955566,4.939024,4.908537,1.371951,3
15:20:54.794,-0.316895,0.120850,0.972656,-3.353659,3.932927,-4.695122,3
15:20:54.929,-0.175781,-0.029785,0.961182,8.079268,-23.414635,-8.445122,3
15:20:55.108,0.061768,-0.052002,0.878906,-29.969513,-14.390244,14.542684,3
15:20:55.194,-0.114258,0.020508,0.776367,-3.079268,29.878050,14.176829,3
15:20:55.318,0.220703,-0.256348,1.035156,10.213415,10.030488,9.390244,3
15:20:55.512,-0.138672,0.107910,1.026611,-2.378049,-2.408537,-8.871951,3
15:20:55.586,-0.174805,0.123047,1.099854,10.274390,-10.426829,-18.323172,3
15:20:55.725,-0.040039,0.044189,0.910156,-4.207317,-28.201220,-17.804878,3
15:20:55.845,0.549805,0.002197,1.373047,0.396341,-4.725610,4.786585,3
15:20:56.041,0.112061,-0.020508,1.052734,5.213415,32.743904,22.500000,3
15:20:56.120,-0.082031,0.039551,0.905518,3.414634,2.743902,0.762195,3
15:20:56.255,-0.143555,0.119873,1.046387,2.957317,0.945122,-19.115854,3
15:20:56.419,-0.053467,0.035645,0.953613,11.128049,-27.195122,-19.329269,3
15:20:56.490,0.080078,-0.094482,0.837646,12.500000,-14.420732,-3.048780,3
15:20:56.626,0.171875,-0.004883,1.110596,-11.859756,9.542684,5.853659,3
15:20:56.808,0.227051,-0.135742,1.068115,0.396341,9.268293,13.079268,3
15:20:56.888,-0.068359,0.059570,1.052490,4.054878,3.506098,-13.201220,3
15:20:57.034,-0.041016,0.116943,0.981934,9.268293,-13.810976,-21.341463,3
15:20:57.175,0.032715,-0.043457,0.922852,-2.896342,-8.262196,7.804878,3
15:20:57.289,0.106689,-0.081299,1.068604,-3.201220,2.560976,6.737805,3
15:20:57.415,0.080811,-0.063232,0.898193,-0.731707,3.841464,6.158537,3
15:20:57.588,-0.011963,0.052246,0.988037,7.469512,3.536585,-13.750000,3
15:20:57.676,0.077637,0.055664,1.026611,18.567074,-16.951220,-18.506098,3
15:20:57.848,-0.022949,0.037109,0.793457,-0.091463,-1.158537,2.713415,3
15:20:57.941,0.083008,-0.025879,1.089355,-10.762196,8.170732,19.085367,3
15:20:58.079,0.045410,-0.219727,1.038574,7.774390,0.243902,9.359756,3
15:20:58.203,0.046875,0.158203,1.004883,5.060976,4.878049,-19.573172,3
15:20:58.347,0.058105,0.069580,1.009521,0.304878,-13.963415,-19.817074,3
15:20:58.451,-0.078613,-0.118408,0.796143,-10.945122,-1.524390,-6.341464,3
15:20:58.590,-0.033936,-0.105469,1.035156,-10.609756,7.713415,14.512196,3
15:20:58.752,0.069580,-0.177002,1.084473,2.896342,3.262195,19.603659,3
15:20:58.850,-0.038330,0.079834,0.999268,1.189024,3.109756,-9.573171,3
15:20:58.978,-0.001221,0.082031,1.041992,6.859756,0.487805,-31.676830,3
15:20:59.109,0.001221,-0.059570,0.937988,18.201220,12.439025,-3.993902,3
15:20:59.261,-0.120605,0.200439,1.140869,-3.475610,-4.451220,4.969512,3
15:20:59.373,0.152344,-0.176270,0.918213,-7.286585,19.542683,38.628048,3
15:20:59.484,-0.030029,-0.018799,1.014648,-3.841464,0.518293,-13.384147,3
15:20:59.649,-0.108154,0.126953,1.054932,14.390244,-2.560976,-31.067074,3
15:20:59.750,-0.073730,-0.007568,0.956299,-59.024391,-22.560976,17.926830,3
15:20:59.867,0.437012,-0.306885,1.417480,-12.012196,-1.615854,2.134146,3
15:21:00.043,0.069336,-0.055908,0.928467,13.079268,21.402439,20.518293,3
15:21:00.157,-0.052979,-0.041992,0.973633,-4.237805,-5.609756,-5.426829,3
15:21:00.268,-0.033936,0.088867,1.069824,8.262196,0.548781,-15.670732,3
15:21:00.425,-0.083496,0.037354,0.908203,2.713415,10.213415,6.402439,3
15:21:00.536,0.102051,-0.392334,1.172607,-16.219513,-5.243903,-4.969512,3
15:21:00.654,0.253174,-0.204346,0.960938,-8.353659,21.798780,21.615854,3
15:21:00.836,-0.097900,0.027832,0.952881,2.134146,-5.426829,4.420732,3
15:21:00.918,-0.115234,0.105469,1.134277,-0.396341,-5.030488,-16.097561,3
15:21:01.060,-0.093262,0.030762,0.900879,17.591463,-34.207317,-7.378049,3
15:21:01.239,0.219482,0.061279,1.137207,-4.481708,-6.067073,0.762195,3
15:21:01.298,0.143066,0.017822,1.063721,-0.853659,23.841463,-2.103659,3
15:21:01.430,-0.002686,-0.074219,1.004150,7.256098,3.201220,-2.012195,3
15:21:01.579,-0.097656,0.033203,1.036377,4.847561,-4.207317,-1.493902,3
15:21:01.739,-0.051514,-0.032715,0.998291,4.878049,-3.292683,-6.585366,3
15:21:01.828,0.057617,-0.012207,0.974121,6.158537,8.780488,-1.798781,3
15:21:01.971,-0.040283,-0.018066,0.948242,-8.140244,3.750000,-9.298780,3
15:21:02.111,0.344482,-0.148438,1.100830,-0.060976,18.353659,6.859756,3
15:21:02.229,-0.025879,-0.043457,0.985840,0.121951,1.554878,-10.731708,3
15:21:02.361,-0.234863,0.046631,1.004395,-0.396341,-5.792683,-2.408537,3
15:21:02.528,-0.074463,-0.051758,0.943848,31.463415,-23.231709,-10.853659,3
15:21:02.613,0.083008,-0.067139,0.808594,9.329268,-14.390244,3.719512,3
15:21:02.749,0.180176,0.029297,1.063721,3.658537,39.695122,18.689024,3
15:21:02.928,0.085938,-0.077637,0.969971,-3.780488,1.920732,17.865854,3
15:21:02.998,-0.216064,0.167725,1.039795,6.341464,-2.500000,-21.067074,3
15:21:03.130,-0.107666,0.064453,1.028320,2.530488,-11.128049,-18.079269,3
15:21:03.296,0.070801,-0.068359,0.967529,-29.939026,-13.323171,23.292683,3
15:21:03.406,0.520020,0.020508,1.614746,-18.262196,-4.268293,1.981707,3
15:21:03.540,0.224609,0.026367,0.876709,8.170732,22.500000,16.097561,3
15:21:03.701,-0.067383,-0.041260,1.009521,10.121951,-0.365854,-7.774390,3
15:21:03.786,-0.113281,0.167480,1.017822,1.676829,-7.713415,-15.609756,3
15:21:03.919,-0.040771,-0.043945,0.957275,27.225611,-24.237806,-16.798780,3
15:21:04.098,0.179932,0.014404,0.899902,4.542683,-5.945122,2.957317,3
15:21:04.187,0.133057,0.053955,1.125732,1.219512,16.402439,11.493903,3
15:21:04.316,0.112549,-0.147461,1.062744,10.000000,5.274390,8.658537,3
